SubjID,trial,block,file1,filedur,loadtime,status,response,option,rt
26225154fb4590,0,2,sounds/type_60,568,25,OK,type,<invalid>,1720
26225154fb4590,1,2,sounds/type_60,568,0,OK,type,<invalid>,679
26225154fb4590,2,2,sounds/type_0,569,40,OK,dype,<invalid>,590
26225154fb4590,3,2,sounds/type_20,569,25,OK,dype,<invalid>,933
26225154fb4590,4,2,sounds/type_0,569,0,OK,dype,<invalid>,578
26225154fb4590,5,2,sounds/type_60,568,0,OK,type,<invalid>,577
26225154fb4590,6,2,sounds/type_60,568,0,OK,type,<invalid>,628
26225154fb4590,7,2,sounds/type_20,569,0,OK,dype,<invalid>,664
26225154fb4590,8,2,sounds/type_80,569,15,OK,type,<invalid>,636
26225154fb4590,9,2,sounds/type_60,568,0,OK,type,<invalid>,553
26225154fb4590,10,2,sounds/type_0,569,0,OK,dype,<invalid>,728
26225154fb4590,11,2,sounds/type_80,569,0,OK,type,<invalid>,774
26225154fb4590,12,2,sounds/type_80,569,0,OK,type,<invalid>,660
26225154fb4590,13,2,sounds/type_40,570,15,OK,type,<invalid>,1278
26225154fb4590,14,2,sounds/type_20,569,0,OK,dype,<invalid>,573
26225154fb4590,15,2,sounds/type_80,569,0,OK,type,<invalid>,661
26225154fb4590,16,2,sounds/type_20,569,0,OK,dype,<invalid>,790
26225154fb4590,17,2,sounds/type_40,570,0,OK,type,<invalid>,1116
26225154fb4590,18,2,sounds/type_80,569,0,OK,type,<invalid>,608
26225154fb4590,19,2,sounds/type_20,569,0,OK,dype,<invalid>,581
26225154fb4590,20,2,sounds/type_20,569,0,OK,dype,<invalid>,539
26225154fb4590,21,2,sounds/type_0,569,0,OK,dype,<invalid>,546
26225154fb4590,22,2,sounds/type_60,568,0,OK,type,<invalid>,653
26225154fb4590,23,2,sounds/type_60,568,0,OK,type,<invalid>,675
26225154fb4590,24,2,sounds/type_0,569,0,OK,dype,<invalid>,501
26225154fb4590,25,2,sounds/type_60,568,0,OK,type,<invalid>,519
26225154fb4590,26,2,sounds/type_0,569,5,OK,dype,<invalid>,561
26225154fb4590,27,2,sounds/type_20,569,5,OK,dype,<invalid>,590
26225154fb4590,28,2,sounds/type_40,570,5,OK,type,<invalid>,766
26225154fb4590,29,2,sounds/type_0,569,0,OK,dype,<invalid>,499
26225154fb4590,30,2,sounds/type_80,569,5,OK,type,<invalid>,706
26225154fb4590,31,2,sounds/type_80,569,0,OK,type,<invalid>,580
26225154fb4590,32,2,sounds/type_40,570,0,OK,dype,<invalid>,636
26225154fb4590,33,2,sounds/type_0,569,0,OK,dype,<invalid>,639
26225154fb4590,34,2,sounds/type_20,569,0,OK,dype,<invalid>,634
26225154fb4590,35,2,sounds/type_40,570,0,OK,type,<invalid>,1298
26225154fb4590,36,2,sounds/type_20,569,0,OK,dype,<invalid>,523
26225154fb4590,37,2,sounds/type_40,570,0,OK,type,<invalid>,996
26225154fb4590,38,2,sounds/type_40,570,0,OK,dype,<invalid>,674
26225154fb4590,39,2,sounds/type_80,569,0,OK,type,<invalid>,701
26225154fb4590,40,2,sounds/type_0,569,0,OK,dype,<invalid>,621
26225154fb4590,41,2,sounds/type_0,569,0,OK,dype,<invalid>,556
26225154fb4590,42,2,sounds/type_60,568,5,OK,type,<invalid>,712
26225154fb4590,43,2,sounds/type_80,569,0,OK,type,<invalid>,642
26225154fb4590,44,2,sounds/type_60,568,0,OK,type,<invalid>,653
26225154fb4590,45,2,sounds/type_80,569,0,OK,type,<invalid>,543
26225154fb4590,46,2,sounds/type_40,570,0,OK,dype,<invalid>,860
26225154fb4590,47,2,sounds/type_40,570,0,OK,type,<invalid>,1975
26225154fb4590,48,2,sounds/type_40,570,0,OK,dype,<invalid>,627
26225154fb4590,49,2,sounds/type_20,569,0,OK,dype,<invalid>,690
26225154fb4590,0,2,sounds/dice_40,630,40,OK,dice,<invalid>,1185
26225154fb4590,1,2,sounds/dice_60,630,25,OK,tice,<invalid>,643
26225154fb4590,2,2,sounds/dice_80,630,20,OK,tice,<invalid>,568
26225154fb4590,3,2,sounds/dice_0,630,10,OK,dice,<invalid>,394
26225154fb4590,4,2,sounds/dice_60,630,0,OK,tice,<invalid>,973
26225154fb4590,5,2,sounds/dice_80,630,0,OK,tice,<invalid>,643
26225154fb4590,6,2,sounds/dice_40,630,0,OK,dice,<invalid>,583
26225154fb4590,7,2,sounds/dice_20,630,15,OK,dice,<invalid>,1091
26225154fb4590,8,2,sounds/dice_80,630,0,OK,tice,<invalid>,490
26225154fb4590,9,2,sounds/dice_60,630,0,OK,tice,<invalid>,530
26225154fb4590,10,2,sounds/dice_60,630,0,OK,dice,<invalid>,1493
26225154fb4590,11,2,sounds/dice_40,630,0,OK,dice,<invalid>,690
26225154fb4590,12,2,sounds/dice_40,630,0,OK,dice,<invalid>,529
26225154fb4590,13,2,sounds/dice_0,630,0,OK,dice,<invalid>,540
26225154fb4590,14,2,sounds/dice_20,630,0,OK,dice,<invalid>,538
26225154fb4590,15,2,sounds/dice_0,630,0,OK,dice,<invalid>,512
26225154fb4590,16,2,sounds/dice_60,630,0,OK,tice,<invalid>,478
26225154fb4590,17,2,sounds/dice_0,630,0,OK,dice,<invalid>,589
26225154fb4590,18,2,sounds/dice_40,630,0,OK,tice,<invalid>,1981
26225154fb4590,19,2,sounds/dice_80,630,0,OK,tice,<invalid>,708
26225154fb4590,20,2,sounds/dice_20,630,0,OK,dice,<invalid>,504
26225154fb4590,21,2,sounds/dice_60,630,0,OK,tice,<invalid>,654
26225154fb4590,22,2,sounds/dice_60,630,0,OK,tice,<invalid>,630
26225154fb4590,23,2,sounds/dice_40,630,0,OK,dice,<invalid>,837
26225154fb4590,24,2,sounds/dice_80,630,0,OK,tice,<invalid>,721
26225154fb4590,25,2,sounds/dice_40,630,0,OK,dice,<invalid>,574
26225154fb4590,26,2,sounds/dice_20,630,0,OK,dice,<invalid>,486
26225154fb4590,27,2,sounds/dice_0,630,0,OK,dice,<invalid>,466
26225154fb4590,28,2,sounds/dice_0,630,0,OK,dice,<invalid>,516
26225154fb4590,29,2,sounds/dice_40,630,0,OK,dice,<invalid>,543
26225154fb4590,30,2,sounds/dice_80,630,0,OK,tice,<invalid>,431
26225154fb4590,31,2,sounds/dice_40,630,0,OK,dice,<invalid>,638
26225154fb4590,32,2,sounds/dice_60,630,0,OK,tice,<invalid>,593
26225154fb4590,33,2,sounds/dice_0,630,0,OK,dice,<invalid>,525
26225154fb4590,34,2,sounds/dice_20,630,0,OK,dice,<invalid>,497
26225154fb4590,35,2,sounds/dice_80,630,0,OK,tice,<invalid>,618
26225154fb4590,36,2,sounds/dice_0,630,0,OK,dice,<invalid>,699
26225154fb4590,37,2,sounds/dice_80,630,0,OK,tice,<invalid>,664
26225154fb4590,38,2,sounds/dice_20,630,0,OK,dice,<invalid>,526
26225154fb4590,39,2,sounds/dice_0,630,0,OK,dice,<invalid>,457
26225154fb4590,40,2,sounds/dice_0,630,0,OK,dice,<invalid>,500
26225154fb4590,41,2,sounds/dice_20,630,0,OK,dice,<invalid>,520
26225154fb4590,42,2,sounds/dice_60,630,0,OK,tice,<invalid>,434
26225154fb4590,43,2,sounds/dice_20,630,0,OK,dice,<invalid>,727
26225154fb4590,44,2,sounds/dice_80,630,0,OK,tice,<invalid>,723
26225154fb4590,45,2,sounds/dice_60,630,0,OK,tice,<invalid>,517
26225154fb4590,46,2,sounds/dice_20,630,0,OK,dice,<invalid>,517
26225154fb4590,47,2,sounds/dice_40,630,0,OK,dice,<invalid>,676
26225154fb4590,48,2,sounds/dice_80,630,0,OK,tice,<invalid>,504
26225154fb4590,49,2,sounds/dice_20,630,0,OK,dice,<invalid>,635
test622642faa2bf5,0,1,sounds/type_80,569,20,OK,type,<invalid>,1866
test622642faa2bf5,1,1,sounds/type_40,570,15,OK,type,<invalid>,1995
test622642faa2bf5,2,1,sounds/type_60,568,30,slow_response,type,<invalid>,4548
test622642faa2bf5,3,1,sounds/type_0,569,20,incorrect_response,type,<invalid>,1791
test622642faa2bf5,4,1,sounds/type_20,569,15,OK,type,<invalid>,2216
test622642faa2bf5,0,1,sounds/dice_60,630,25,OK,tice,<invalid>,1047
test622642faa2bf5,1,1,sounds/dice_80,630,20,incorrect_response,dice,<invalid>,2131
test622642faa2bf5,2,1,sounds/dice_0,630,15,OK,dice,<invalid>,2393
test622642faa2bf5,3,1,sounds/dice_20,630,45,OK,tice,<invalid>,789
test622642faa2bf5,4,1,sounds/dice_40,630,15,OK,dice,<invalid>,650
test6227de33a0fb4,0,1,sounds/type_40,570,90,OK,type,<invalid>,2472
test6227de33a0fb4,1,1,sounds/type_0,569,60,OK,dype,<invalid>,1991
test6227de33a0fb4,2,1,sounds/type_60,568,50,OK,type,<invalid>,1061
test6227de33a0fb4,3,1,sounds/type_80,569,50,OK,type,<invalid>,1125
test6227de33a0fb4,4,1,sounds/type_20,569,50,OK,dype,<invalid>,1702
test6227de33a0fb4,0,1,sounds/dice_20,630,60,OK,dice,<invalid>,1689
test6227de33a0fb4,1,1,sounds/dice_80,630,75,OK,tice,<invalid>,1299
test6227de33a0fb4,2,1,sounds/dice_60,630,60,OK,tice,<invalid>,2248
test6227de33a0fb4,3,1,sounds/dice_0,630,50,OK,dice,<invalid>,1038
test6227de33a0fb4,4,1,sounds/dice_40,630,90,OK,dice,<invalid>,2219
16227ef7aaf0b5,0,1,sounds/type_60,568,25,OK,dype,<invalid>,1316
16227ef7aaf0b5,1,1,sounds/type_0,569,15,OK,dype,<invalid>,697
26227f09b50222,0,2,sounds/type_20,569,20,OK,type,<invalid>,1595
26228e1fb2d623,0,2,sounds/type_0,569,85,slow_response,dype,<invalid>,3645
26228e1fb2d623,1,2,sounds/type_80,569,60,OK,type,<invalid>,1490
26228e1fb2d623,2,2,sounds/type_0,569,50,OK,dype,<invalid>,1214
26228e1fb2d623,3,2,sounds/type_0,569,90,OK,dype,<invalid>,1387
26228e1fb2d623,4,2,sounds/type_80,569,60,OK,type,<invalid>,1135
26228e20d3b275,0,2,sounds/type_40,570,25,OK,type,<invalid>,1590
26228e1fb2d623,5,2,sounds/type_80,569,65,OK,type,<invalid>,1127
26228e20d3b275,1,2,sounds/type_60,568,15,OK,type,<invalid>,1047
26228e1fb2d623,6,2,sounds/type_60,568,430,OK,type,<invalid>,1065
26228e20d3b275,2,2,sounds/type_40,570,0,OK,type,<invalid>,705
26228e20d3b275,3,2,sounds/type_80,569,30,OK,type,<invalid>,582
26228e1fb2d623,7,2,sounds/type_60,568,95,OK,type,<invalid>,1775
26228e20d3b275,4,2,sounds/type_40,570,5,OK,dype,<invalid>,1726
26228e1fb2d623,8,2,sounds/type_20,569,65,OK,dype,<invalid>,1356
16228e21526e91,0,1,sounds/type_40,570,25,OK,type,<invalid>,1695
26228e20d3b275,5,2,sounds/type_60,568,0,OK,type,<invalid>,653
26228e1fb2d623,9,2,sounds/type_80,569,85,OK,type,<invalid>,1147
16228e21526e91,1,1,sounds/type_80,569,30,OK,type,<invalid>,1519
26228e20d3b275,6,2,sounds/type_60,568,5,OK,type,<invalid>,919
26228e1fb2d623,10,2,sounds/type_0,569,65,OK,dype,<invalid>,991
16228e21526e91,2,1,sounds/type_0,569,155,OK,dype,<invalid>,1608
26228e20d3b275,7,2,sounds/type_80,569,0,OK,type,<invalid>,2106
26228e1fb2d623,11,2,sounds/type_80,569,65,OK,type,<invalid>,1135
16228e21526e91,3,1,sounds/type_60,568,35,OK,type,<invalid>,1044
26228e20d3b275,8,2,sounds/type_0,569,20,OK,dype,<invalid>,643
26228e1fb2d623,12,2,sounds/type_0,569,335,OK,dype,<invalid>,1279
16228e21526e91,4,1,sounds/type_20,569,35,OK,dype,<invalid>,1473
26228e20d3b275,9,2,sounds/type_0,569,0,OK,dype,<invalid>,630
26228e1fb2d623,13,2,sounds/type_20,569,275,OK,dype,<invalid>,1221
16228e21526e91,5,1,sounds/type_80,569,35,OK,type,<invalid>,1102
26228e20d3b275,10,2,sounds/type_20,569,25,OK,dype,<invalid>,706
26228e20d3b275,11,2,sounds/type_0,569,0,OK,dype,<invalid>,560
26228e1fb2d623,14,2,sounds/type_0,569,90,OK,dype,<invalid>,1125
16228e21526e91,6,1,sounds/type_40,570,30,OK,type,<invalid>,1058
26228e20d3b275,12,2,sounds/type_80,569,5,OK,type,<invalid>,861
26228e1fb2d623,15,2,sounds/type_20,569,55,OK,dype,<invalid>,1417
16228e21526e91,7,1,sounds/type_60,568,35,OK,type,<invalid>,1707
26228e20d3b275,13,2,sounds/type_40,570,5,OK,type,<invalid>,1663
26228e1fb2d623,16,2,sounds/type_40,570,75,OK,dype,<invalid>,1699
26228e20d3b275,14,2,sounds/type_40,570,5,OK,type,<invalid>,686
16228e21526e91,8,1,sounds/type_60,568,190,slow_response,type,<invalid>,3102
26228e1fb2d623,17,2,sounds/type_40,570,60,OK,type,<invalid>,1700
26228e20d3b275,15,2,sounds/type_0,569,5,OK,dype,<invalid>,779
16228e21526e91,9,1,sounds/type_0,569,150,OK,dype,<invalid>,809
26228e1fb2d623,18,2,sounds/type_20,569,75,OK,dype,<invalid>,1126
26228e20d3b275,16,2,sounds/type_40,570,0,OK,type,<invalid>,726
16228e21526e91,10,1,sounds/type_60,568,40,OK,dype,<invalid>,1074
26228e20d3b275,17,2,sounds/type_80,569,5,OK,type,<invalid>,572
26228e1fb2d623,19,2,sounds/type_0,569,70,OK,dype,<invalid>,1130
16228e21526e91,11,1,sounds/type_40,570,30,OK,type,<invalid>,871
26228e20d3b275,18,2,sounds/type_60,568,0,OK,type,<invalid>,558
26228e1fb2d623,20,2,sounds/type_0,569,65,OK,dype,<invalid>,1001
16228e21526e91,12,1,sounds/type_40,570,40,OK,type,<invalid>,882
26228e20d3b275,19,2,sounds/type_0,569,5,OK,dype,<invalid>,784
26228e1fb2d623,21,2,sounds/type_60,568,50,OK,type,<invalid>,1102
16228e21526e91,13,1,sounds/type_20,569,175,OK,type,<invalid>,963
26228e20d3b275,20,2,sounds/type_40,570,5,OK,type,<invalid>,577
26228e1fb2d623,22,2,sounds/type_20,569,280,OK,dype,<invalid>,1109
16228e21526e91,14,1,sounds/type_40,570,105,OK,type,<invalid>,1008
26228e20d3b275,21,2,sounds/type_20,569,5,OK,dype,<invalid>,1467
26228e1fb2d623,23,2,sounds/type_60,568,75,OK,type,<invalid>,1325
16228e21526e91,15,1,sounds/type_60,568,100,OK,type,<invalid>,984
26228e20d3b275,22,2,sounds/type_20,569,5,OK,dype,<invalid>,876
16228e21526e91,16,1,sounds/type_80,569,150,OK,type,<invalid>,1048
26228e20d3b275,23,2,sounds/type_20,569,0,OK,dype,<invalid>,581
26228e1fb2d623,24,2,sounds/type_40,570,170,OK,type,<invalid>,2488
26228e20d3b275,24,2,sounds/type_40,570,0,OK,type,<invalid>,652
16228e21526e91,17,1,sounds/type_20,569,80,OK,dype,<invalid>,875
26228e1fb2d623,25,2,sounds/type_40,570,100,OK,type,<invalid>,1927
26228e20d3b275,25,2,sounds/type_60,568,0,OK,type,<invalid>,679
16228e21526e91,18,1,sounds/type_40,570,35,OK,type,<invalid>,822
26228e20d3b275,26,2,sounds/type_60,568,5,OK,type,<invalid>,945
26228e1fb2d623,26,2,sounds/type_80,569,65,OK,type,<invalid>,1199
16228e21526e91,19,1,sounds/type_0,569,130,OK,dype,<invalid>,764
26228e20d3b275,27,2,sounds/type_0,569,5,OK,dype,<invalid>,716
26228e1fb2d623,27,2,sounds/type_20,569,60,OK,dype,<invalid>,1120
16228e21526e91,20,1,sounds/type_40,570,50,OK,type,<invalid>,809
16228e258094e6,0,1,sounds/type_40,570,20,slow_response,dype,<invalid>,4237
26228e20d3b275,28,2,sounds/type_0,569,5,OK,dype,<invalid>,898
16228e21526e91,21,1,sounds/type_0,569,170,OK,dype,<invalid>,794
26228e1fb2d623,28,2,sounds/type_80,569,65,OK,type,<invalid>,1089
26228e20d3b275,29,2,sounds/type_40,570,0,OK,type,<invalid>,506
16228e258094e6,1,1,sounds/type_60,568,10,OK,type,<invalid>,2006
16228e21526e91,22,1,sounds/type_40,570,95,OK,type,<invalid>,866
26228e1fb2d623,29,2,sounds/type_60,568,65,OK,type,<invalid>,1140
26228e20d3b275,30,2,sounds/type_80,569,0,OK,type,<invalid>,522
16228e258094e6,2,1,sounds/type_40,570,5,OK,dype,<invalid>,1393
16228e21526e91,23,1,sounds/type_60,568,25,OK,type,<invalid>,787
26228e1fb2d623,30,2,sounds/type_20,569,80,OK,dype,<invalid>,1024
26228e20d3b275,31,2,sounds/type_0,569,5,OK,dype,<invalid>,729
16228e258094e6,3,1,sounds/type_60,568,5,OK,type,<invalid>,1126
16228e21526e91,24,1,sounds/type_40,570,215,OK,type,<invalid>,796
26228e20d3b275,32,2,sounds/type_80,569,0,OK,type,<invalid>,642
26228e1fb2d623,31,2,sounds/type_20,569,85,OK,dype,<invalid>,1246
16228e258094e6,4,1,sounds/type_0,569,20,OK,dype,<invalid>,664
16228e21526e91,25,1,sounds/type_60,568,30,OK,type,<invalid>,841
26228e20d3b275,33,2,sounds/type_20,569,5,OK,dype,<invalid>,709
16228e258094e6,5,1,sounds/type_60,568,5,OK,type,<invalid>,652
26228e1fb2d623,32,2,sounds/type_40,570,65,OK,type,<invalid>,2051
26228e26e41e3d,0,2,sounds/type_60,568,100,OK,type,<invalid>,1498
16228e21526e91,26,1,sounds/type_20,569,70,OK,type,<invalid>,878
26228e20d3b275,34,2,sounds/type_20,569,0,OK,dype,<invalid>,807
16228e258094e6,6,1,sounds/type_80,569,20,incorrect_response,dype,<invalid>,673
26228e1fb2d623,33,2,sounds/type_80,569,70,OK,type,<invalid>,1153
16228e21526e91,27,1,sounds/type_0,569,75,OK,dype,<invalid>,839
26228e26e41e3d,1,2,sounds/type_60,568,45,OK,type,<invalid>,1534
26228e20d3b275,35,2,sounds/type_40,570,5,OK,type,<invalid>,866
16228e258094e6,7,1,sounds/type_80,569,5,OK,type,<invalid>,897
16228e21526e91,28,1,sounds/type_80,569,40,OK,type,<invalid>,910
26228e20d3b275,36,2,sounds/type_20,569,0,OK,dype,<invalid>,700
26228e26e41e3d,2,2,sounds/type_20,569,45,OK,dype,<invalid>,1465
26228e1fb2d623,34,2,sounds/type_40,570,110,OK,dype,<invalid>,2261
16228e258094e6,8,1,sounds/type_40,570,5,OK,type,<invalid>,1111
16228e21526e91,29,1,sounds/type_60,568,125,OK,type,<invalid>,809
26228e20d3b275,37,2,sounds/type_0,569,0,OK,dype,<invalid>,749
26228e1fb2d623,35,2,sounds/type_80,569,60,OK,type,<invalid>,1045
26228e26e41e3d,3,2,sounds/type_0,569,35,OK,dype,<invalid>,1366
16228e258094e6,9,1,sounds/type_0,569,5,OK,dype,<invalid>,613
26228e20d3b275,38,2,sounds/type_60,568,5,OK,type,<invalid>,749
16228e21526e91,30,1,sounds/type_80,569,35,OK,type,<invalid>,916
26228e1fb2d623,36,2,sounds/type_0,569,70,OK,dype,<invalid>,1100
26228e26e41e3d,4,2,sounds/type_60,568,35,OK,type,<invalid>,1219
16228e258094e6,10,1,sounds/type_20,569,30,OK,dype,<invalid>,1105
26228e20d3b275,39,2,sounds/type_80,569,0,OK,type,<invalid>,593
16228e21526e91,31,1,sounds/type_80,569,30,OK,type,<invalid>,886
16228e258094e6,11,1,sounds/type_60,568,5,OK,type,<invalid>,489
26228e1fb2d623,37,2,sounds/type_0,569,95,OK,dype,<invalid>,1163
26228e26e41e3d,5,2,sounds/type_60,568,60,OK,type,<invalid>,1207
26228e20d3b275,40,2,sounds/type_60,568,5,OK,type,<invalid>,1187
16228e21526e91,32,1,sounds/type_0,569,170,OK,dype,<invalid>,877
16228e258094e6,12,1,sounds/type_60,568,5,OK,type,<invalid>,977
26228e26e41e3d,6,2,sounds/type_40,570,40,OK,type,<invalid>,1208
26228e1fb2d623,38,2,sounds/type_40,570,65,OK,dype,<invalid>,1519
26228e20d3b275,41,2,sounds/type_0,569,0,OK,dype,<invalid>,759
16228e21526e91,33,1,sounds/type_20,569,75,OK,type,<invalid>,907
16228e258094e6,13,1,sounds/type_0,569,5,OK,dype,<invalid>,720
26228e1fb2d623,39,2,sounds/type_60,568,80,OK,type,<invalid>,1078
26228e26e41e3d,7,2,sounds/type_60,568,185,OK,type,<invalid>,1312
16228e21526e91,34,1,sounds/type_20,569,30,OK,type,<invalid>,925
26228e20d3b275,42,2,sounds/type_20,569,5,OK,dype,<invalid>,931
16228e258094e6,14,1,sounds/type_60,568,5,OK,type,<invalid>,619
26228e20d3b275,43,2,sounds/type_80,569,0,OK,type,<invalid>,505
26228e26e41e3d,8,2,sounds/type_40,570,105,OK,type,<invalid>,1265
26228e1fb2d623,40,2,sounds/type_40,570,165,OK,type,<invalid>,1708
16228e21526e91,35,1,sounds/type_20,569,60,OK,type,<invalid>,1452
16228e258094e6,15,1,sounds/type_60,568,5,OK,type,<invalid>,1110
26228e20d3b275,44,2,sounds/type_20,569,5,OK,dype,<invalid>,780
26228e26e41e3d,9,2,sounds/type_0,569,40,OK,dype,<invalid>,1073
26228e1fb2d623,41,2,sounds/type_60,568,65,OK,type,<invalid>,1178
16228e21526e91,36,1,sounds/type_80,569,30,OK,type,<invalid>,1189
16228e258094e6,16,1,sounds/type_60,568,5,OK,type,<invalid>,1092
26228e20d3b275,45,2,sounds/type_20,569,5,OK,dype,<invalid>,826
26228e26e41e3d,10,2,sounds/type_0,569,40,OK,dype,<invalid>,1190
16228e21526e91,37,1,sounds/type_60,568,40,OK,type,<invalid>,1048
16228e258094e6,17,1,sounds/type_20,569,5,OK,dype,<invalid>,660
26228e1fb2d623,42,2,sounds/type_80,569,60,OK,type,<invalid>,1144
26228e20d3b275,46,2,sounds/type_80,569,5,OK,type,<invalid>,635
16228e258094e6,18,1,sounds/type_20,569,5,OK,dype,<invalid>,897
26228e26e41e3d,11,2,sounds/type_40,570,35,OK,type,<invalid>,1346
16228e21526e91,38,1,sounds/type_80,569,40,OK,type,<invalid>,1181
26228e20d3b275,47,2,sounds/type_60,568,0,OK,type,<invalid>,970
26228e1fb2d623,43,2,sounds/type_40,570,85,OK,type,<invalid>,1392
16228e258094e6,19,1,sounds/type_80,569,5,OK,type,<invalid>,717
16228e21526e91,39,1,sounds/type_20,569,70,OK,dype,<invalid>,885
26228e26e41e3d,12,2,sounds/type_0,569,85,OK,dype,<invalid>,1484
26228e1fb2d623,44,2,sounds/type_20,569,90,OK,dype,<invalid>,987
26228e20d3b275,48,2,sounds/type_60,568,0,OK,type,<invalid>,730
16228e258094e6,20,1,sounds/type_40,570,5,OK,dype,<invalid>,744
16228e21526e91,40,1,sounds/type_0,569,110,OK,dype,<invalid>,806
26228e20d3b275,49,2,sounds/type_80,569,5,OK,type,<invalid>,1153
26228e26e41e3d,13,2,sounds/type_0,569,45,unallowed_response,dype,<invalid>,1877
26228e1fb2d623,45,2,sounds/type_40,570,65,OK,dype,<invalid>,2090
16228e258094e6,21,1,sounds/type_40,570,5,OK,type,<invalid>,877
16228e21526e91,41,1,sounds/type_0,569,35,OK,dype,<invalid>,750
26228e26e41e3d,14,2,sounds/type_60,568,30,OK,type,<invalid>,1094
16228e258094e6,22,1,sounds/type_0,569,5,OK,dype,<invalid>,561
26228e1fb2d623,46,2,sounds/type_60,568,70,OK,type,<invalid>,1125
16228e21526e91,42,1,sounds/type_60,568,30,OK,type,<invalid>,806
16228e258094e6,23,1,sounds/type_20,569,5,OK,dype,<invalid>,762
26228e26e41e3d,15,2,sounds/type_20,569,45,OK,type,<invalid>,1048
26228e1fb2d623,47,2,sounds/type_60,568,60,OK,type,<invalid>,1424
16228e21526e91,43,1,sounds/type_80,569,30,OK,type,<invalid>,801
26228e20d3b275,0,2,sounds/dice_80,630,25,OK,tice,<invalid>,1592
16228e258094e6,24,1,sounds/type_20,569,5,OK,dype,<invalid>,970
26228e26e41e3d,16,2,sounds/type_80,569,45,OK,type,<invalid>,1148
16228e21526e91,44,1,sounds/type_80,569,35,OK,type,<invalid>,771
26228e1fb2d623,48,2,sounds/type_20,569,65,OK,dype,<invalid>,1225
26228e20d3b275,1,2,sounds/dice_20,630,20,OK,dice,<invalid>,713
16228e258094e6,25,1,sounds/type_20,569,5,OK,dype,<invalid>,852
26228e26e41e3d,17,2,sounds/type_80,569,45,OK,type,<invalid>,1007
16228e21526e91,45,1,sounds/type_0,569,35,OK,dype,<invalid>,691
26228e1fb2d623,49,2,sounds/type_60,568,85,OK,type,<invalid>,1125
26228e20d3b275,2,2,sounds/dice_40,630,20,OK,dice,<invalid>,641
16228e258094e6,26,1,sounds/type_0,569,5,OK,dype,<invalid>,703
16228e21526e91,46,1,sounds/type_20,569,30,OK,dype,<invalid>,796
26228e26e41e3d,18,2,sounds/type_60,568,40,OK,type,<invalid>,995
26228e20d3b275,3,2,sounds/dice_40,630,0,OK,dice,<invalid>,609
16228e258094e6,27,1,sounds/type_40,570,5,OK,type,<invalid>,671
16228e21526e91,47,1,sounds/type_20,569,130,OK,dype,<invalid>,906
26228e26e41e3d,19,2,sounds/type_80,569,85,OK,type,<invalid>,1063
26228e20d3b275,4,2,sounds/dice_60,630,20,OK,dice,<invalid>,1272
16228e258094e6,28,1,sounds/type_40,570,5,OK,type,<invalid>,749
16228e21526e91,48,1,sounds/type_40,570,35,OK,type,<invalid>,850
26228e26e41e3d,20,2,sounds/type_60,568,45,OK,type,<invalid>,963
26228e20d3b275,5,2,sounds/dice_80,630,0,OK,tice,<invalid>,688
16228e258094e6,29,1,sounds/type_80,569,0,OK,type,<invalid>,923
16228e21526e91,49,1,sounds/type_0,569,40,OK,dype,<invalid>,764
26228e26e41e3d,21,2,sounds/type_60,568,40,OK,type,<invalid>,1076
26228e20d3b275,6,2,sounds/dice_20,630,0,OK,dice,<invalid>,684
16228e258094e6,30,1,sounds/type_20,569,5,OK,dype,<invalid>,636
26228e1fb2d623,0,2,sounds/dice_60,630,65,OK,tice,<invalid>,2099
26228e26e41e3d,22,2,sounds/type_0,569,35,OK,dype,<invalid>,949
26228e20d3b275,7,2,sounds/dice_0,630,25,OK,dice,<invalid>,710
16228e258094e6,31,1,sounds/type_40,570,5,OK,type,<invalid>,894
26228e1fb2d623,1,2,sounds/dice_80,630,90,OK,tice,<invalid>,1123
26228e20d3b275,8,2,sounds/dice_20,630,0,OK,dice,<invalid>,574
26228e26e41e3d,23,2,sounds/type_0,569,65,OK,dype,<invalid>,969
16228e258094e6,32,1,sounds/type_80,569,5,OK,type,<invalid>,775
26228e1fb2d623,2,2,sounds/dice_20,630,120,OK,dice,<invalid>,963
26228e20d3b275,9,2,sounds/dice_0,630,0,OK,dice,<invalid>,582
26228e26e41e3d,24,2,sounds/type_0,569,55,OK,dype,<invalid>,968
16228e258094e6,33,1,sounds/type_0,569,5,OK,dype,<invalid>,757
26228e20d3b275,10,2,sounds/dice_0,630,0,OK,dice,<invalid>,436
26228e1fb2d623,3,2,sounds/dice_60,630,85,OK,tice,<invalid>,967
26228e26e41e3d,25,2,sounds/type_80,569,40,OK,type,<invalid>,994
16228e258094e6,34,1,sounds/type_20,569,5,OK,dype,<invalid>,991
26228e20d3b275,11,2,sounds/dice_0,630,0,OK,dice,<invalid>,434
26228e1fb2d623,4,2,sounds/dice_20,630,65,OK,dice,<invalid>,954
26228e26e41e3d,26,2,sounds/type_80,569,45,OK,type,<invalid>,997
16228e258094e6,35,1,sounds/type_0,569,5,OK,dype,<invalid>,682
26228e20d3b275,12,2,sounds/dice_0,630,5,OK,dice,<invalid>,439
16228e21526e91,0,1,sounds/dice_0,630,30,OK,dice,<invalid>,1590
26228e1fb2d623,5,2,sounds/dice_80,630,80,OK,tice,<invalid>,901
16228e258094e6,36,1,sounds/type_20,569,5,OK,type,<invalid>,896
26228e26e41e3d,27,2,sounds/type_20,569,40,OK,dype,<invalid>,1053
26228e20d3b275,13,2,sounds/dice_40,630,0,OK,tice,<invalid>,690
16228e21526e91,1,1,sounds/dice_0,630,30,OK,dice,<invalid>,831
26228e1fb2d623,6,2,sounds/dice_60,630,60,OK,tice,<invalid>,1212
16228e258094e6,37,1,sounds/type_80,569,5,OK,type,<invalid>,670
26228e26e41e3d,28,2,sounds/type_40,570,50,OK,type,<invalid>,1044
26228e20d3b275,14,2,sounds/dice_60,630,0,OK,tice,<invalid>,573
16228e21526e91,2,1,sounds/dice_40,630,35,OK,tice,<invalid>,804
26228e1fb2d623,7,2,sounds/dice_20,630,65,OK,dice,<invalid>,974
16228e258094e6,38,1,sounds/type_0,569,5,OK,dype,<invalid>,608
26228e20d3b275,15,2,sounds/dice_80,630,0,OK,tice,<invalid>,559
16228e21526e91,3,1,sounds/dice_0,630,205,OK,dice,<invalid>,775
26228e26e41e3d,29,2,sounds/type_40,570,45,OK,type,<invalid>,1013
26228e20d3b275,16,2,sounds/dice_60,630,5,OK,tice,<invalid>,535
16228e258094e6,39,1,sounds/type_60,568,20,OK,type,<invalid>,547
26228e1fb2d623,8,2,sounds/dice_60,630,55,OK,tice,<invalid>,947
16228e21526e91,4,1,sounds/dice_60,630,45,OK,tice,<invalid>,845
26228e20d3b275,17,2,sounds/dice_60,630,0,OK,tice,<invalid>,590
16228e258094e6,40,1,sounds/type_40,570,5,OK,type,<invalid>,793
26228e1fb2d623,9,2,sounds/dice_40,630,90,OK,dice,<invalid>,1226
16228e21526e91,5,1,sounds/dice_0,630,35,OK,dice,<invalid>,789
26228e26e41e3d,30,2,sounds/type_20,569,40,slow_response,dype,<invalid>,4456
26228e20d3b275,18,2,sounds/dice_80,630,5,OK,tice,<invalid>,528
16228e258094e6,41,1,sounds/type_20,569,5,OK,dype,<invalid>,492
26228e1fb2d623,10,2,sounds/dice_80,630,55,OK,tice,<invalid>,993
16228e21526e91,6,1,sounds/dice_20,630,35,OK,tice,<invalid>,949
26228e20d3b275,19,2,sounds/dice_0,630,0,OK,dice,<invalid>,766
16228e258094e6,42,1,sounds/type_40,570,5,OK,type,<invalid>,668
26228e26e41e3d,31,2,sounds/type_0,569,45,OK,dype,<invalid>,1180
26228e1fb2d623,11,2,sounds/dice_20,630,100,OK,dice,<invalid>,792
16228e21526e91,7,1,sounds/dice_20,630,30,OK,tice,<invalid>,767
16228e258094e6,43,1,sounds/type_80,569,5,OK,type,<invalid>,780
26228e26e41e3d,32,2,sounds/type_40,570,35,OK,type,<invalid>,846
26228e20d3b275,20,2,sounds/dice_60,630,5,OK,tice,<invalid>,642
26228e1fb2d623,12,2,sounds/dice_80,630,65,OK,tice,<invalid>,918
26228e20d3b275,21,2,sounds/dice_80,630,0,OK,tice,<invalid>,822
16228e258094e6,44,1,sounds/type_60,568,5,OK,type,<invalid>,754
26228e26e41e3d,33,2,sounds/type_20,569,40,OK,type,<invalid>,1220
16228e21526e91,8,1,sounds/dice_60,630,35,OK,tice,<invalid>,813
16228e21526e91,9,1,sounds/dice_0,630,35,OK,dice,<invalid>,742
26228e1fb2d623,13,2,sounds/dice_80,630,85,OK,tice,<invalid>,1303
16228e258094e6,45,1,sounds/type_80,569,5,OK,type,<invalid>,910
26228e20d3b275,22,2,sounds/dice_40,630,5,OK,dice,<invalid>,1701
26228e26e41e3d,34,2,sounds/type_20,569,45,OK,type,<invalid>,1064
16228e21526e91,10,1,sounds/dice_80,630,30,OK,tice,<invalid>,800
26228e1fb2d623,14,2,sounds/dice_0,630,65,OK,dice,<invalid>,906
16228e258094e6,46,1,sounds/type_80,569,5,OK,type,<invalid>,1113
26228e20d3b275,23,2,sounds/dice_80,630,0,OK,tice,<invalid>,688
26228e26e41e3d,35,2,sounds/type_40,570,40,OK,type,<invalid>,1015
16228e2ce08082,0,1,sounds/type_60,568,35,slow_response,dype,<invalid>,4476
16228e21526e91,11,1,sounds/dice_40,630,155,OK,tice,<invalid>,775
26228e20d3b275,24,2,sounds/dice_80,630,5,OK,tice,<invalid>,549
26228e1fb2d623,15,2,sounds/dice_40,630,100,OK,dice,<invalid>,1112
16228e258094e6,47,1,sounds/type_80,569,5,OK,type,<invalid>,1063
26228e26e41e3d,36,2,sounds/type_60,568,40,OK,type,<invalid>,874
16228e21526e91,12,1,sounds/dice_60,630,35,OK,tice,<invalid>,820
26228e20d3b275,25,2,sounds/dice_60,630,5,OK,tice,<invalid>,638
16228e258094e6,48,1,sounds/type_0,569,15,OK,dype,<invalid>,435
26228e1fb2d623,16,2,sounds/dice_20,630,70,OK,dice,<invalid>,955
26228e26e41e3d,37,2,sounds/type_80,569,45,OK,type,<invalid>,1040
16228e21526e91,13,1,sounds/dice_0,630,35,OK,dice,<invalid>,722
26228e20d3b275,26,2,sounds/dice_0,630,5,OK,dice,<invalid>,635
16228e258094e6,49,1,sounds/type_0,569,5,OK,dype,<invalid>,819
26228e1fb2d623,17,2,sounds/dice_0,630,75,OK,dice,<invalid>,1020
26228e26e41e3d,38,2,sounds/type_40,570,45,OK,type,<invalid>,1102
26228e20d3b275,27,2,sounds/dice_0,630,5,incorrect_response,tice,<invalid>,497
16228e21526e91,14,1,sounds/dice_40,630,30,OK,tice,<invalid>,723
26228e1fb2d623,18,2,sounds/dice_0,630,70,OK,dice,<invalid>,983
26228e26e41e3d,39,2,sounds/type_40,570,40,OK,type,<invalid>,1025
26228e20d3b275,28,2,sounds/dice_20,630,5,OK,dice,<invalid>,956
16228e21526e91,15,1,sounds/dice_20,630,40,OK,tice,<invalid>,816
16228e2ce08082,1,1,sounds/type_0,569,15,slow_response,dype,<invalid>,12859
26228e1fb2d623,19,2,sounds/dice_0,630,165,OK,dice,<invalid>,1007
26228e26e41e3d,40,2,sounds/type_40,570,35,OK,type,<invalid>,921
16228e21526e91,16,1,sounds/dice_80,630,35,OK,tice,<invalid>,785
26228e20d3b275,29,2,sounds/dice_20,630,0,OK,dice,<invalid>,945
26228e1fb2d623,20,2,sounds/dice_0,630,80,OK,dice,<invalid>,1220
16228e21526e91,17,1,sounds/dice_20,630,30,OK,dice,<invalid>,740
16228e258094e6,0,1,sounds/dice_80,630,20,OK,tice,<invalid>,1808
26228e26e41e3d,41,2,sounds/type_80,569,50,OK,type,<invalid>,1428
26228e20d3b275,30,2,sounds/dice_40,630,0,OK,tice,<invalid>,1161
16228e2ce08082,2,1,sounds/type_60,568,0,slow_response,type,<invalid>,2742
16228e21526e91,18,1,sounds/dice_0,630,35,OK,dice,<invalid>,570
26228e1fb2d623,21,2,sounds/dice_0,630,80,OK,dice,<invalid>,1127
16228e258094e6,1,1,sounds/dice_20,630,25,OK,dice,<invalid>,750
26228e20d3b275,31,2,sounds/dice_0,630,0,OK,dice,<invalid>,565
26228e26e41e3d,42,2,sounds/type_80,569,115,OK,type,<invalid>,989
16228e2ce08082,3,1,sounds/type_0,569,0,OK,dype,<invalid>,1508
16228e21526e91,19,1,sounds/dice_60,630,30,OK,tice,<invalid>,785
16228e258094e6,2,1,sounds/dice_40,630,15,OK,tice,<invalid>,841
26228e1fb2d623,22,2,sounds/dice_20,630,75,OK,dice,<invalid>,1002
26228e20d3b275,32,2,sounds/dice_80,630,5,OK,tice,<invalid>,886
26228e26e41e3d,43,2,sounds/type_20,569,40,OK,type,<invalid>,1109
16228e2ce08082,4,1,sounds/type_80,569,20,OK,type,<invalid>,1224
16228e21526e91,20,1,sounds/dice_40,630,35,OK,tice,<invalid>,607
16228e258094e6,3,1,sounds/dice_40,630,5,OK,dice,<invalid>,888
26228e20d3b275,33,2,sounds/dice_60,630,0,OK,tice,<invalid>,887
26228e1fb2d623,23,2,sounds/dice_40,630,65,OK,dice,<invalid>,1491
26228e26e41e3d,44,2,sounds/type_80,569,75,OK,type,<invalid>,1023
16228e2ce08082,5,1,sounds/type_80,569,0,OK,type,<invalid>,1325
16228e21526e91,21,1,sounds/dice_40,630,30,OK,tice,<invalid>,722
16228e258094e6,4,1,sounds/dice_40,630,5,OK,dice,<invalid>,1305
26228e1fb2d623,24,2,sounds/dice_60,630,70,OK,tice,<invalid>,858
26228e20d3b275,34,2,sounds/dice_40,630,0,OK,dice,<invalid>,1585
26228e26e41e3d,45,2,sounds/type_20,569,40,OK,dype,<invalid>,1540
16228e21526e91,22,1,sounds/dice_0,630,30,OK,dice,<invalid>,590
16228e2ce08082,6,1,sounds/type_40,570,10,OK,type,<invalid>,1186
16228e258094e6,5,1,sounds/dice_0,630,15,OK,dice,<invalid>,989
26228e20d3b275,35,2,sounds/dice_20,630,0,OK,dice,<invalid>,959
26228e1fb2d623,25,2,sounds/dice_80,630,60,OK,tice,<invalid>,986
26228e26e41e3d,46,2,sounds/type_0,569,45,OK,dype,<invalid>,924
16228e21526e91,23,1,sounds/dice_60,630,30,OK,tice,<invalid>,837
16228e2ce08082,7,1,sounds/type_20,569,10,OK,dype,<invalid>,519
16228e258094e6,6,1,sounds/dice_80,630,15,OK,tice,<invalid>,918
26228e20d3b275,36,2,sounds/dice_80,630,0,OK,tice,<invalid>,689
26228e1fb2d623,26,2,sounds/dice_20,630,60,OK,dice,<invalid>,1324
16228e21526e91,24,1,sounds/dice_20,630,30,OK,dice,<invalid>,811
16228e2ce08082,8,1,sounds/type_40,570,5,OK,dype,<invalid>,1037
26228e26e41e3d,47,2,sounds/type_20,569,40,OK,type,<invalid>,1236
26228e20d3b275,37,2,sounds/dice_60,630,5,OK,tice,<invalid>,1138
16228e258094e6,7,1,sounds/dice_40,630,5,OK,dice,<invalid>,1324
16228e21526e91,25,1,sounds/dice_40,630,205,OK,tice,<invalid>,665
26228e26e41e3d,48,2,sounds/type_80,569,35,OK,type,<invalid>,1011
26228e1fb2d623,27,2,sounds/dice_40,630,65,OK,tice,<invalid>,1575
16228e2ce08082,9,1,sounds/type_20,569,0,OK,type,<invalid>,1042
26228e20d3b275,38,2,sounds/dice_20,630,0,OK,dice,<invalid>,639
16228e258094e6,8,1,sounds/dice_60,630,20,OK,tice,<invalid>,765
16228e21526e91,26,1,sounds/dice_20,630,410,OK,dice,<invalid>,979
16228e2ce08082,10,1,sounds/type_80,569,0,OK,type,<invalid>,1245
26228e1fb2d623,28,2,sounds/dice_60,630,70,OK,tice,<invalid>,1181
26228e26e41e3d,49,2,sounds/type_20,569,40,OK,dype,<invalid>,1354
16228e258094e6,9,1,sounds/dice_20,630,5,OK,dice,<invalid>,632
26228e20d3b275,39,2,sounds/dice_40,630,5,OK,dice,<invalid>,1636
16228e21526e91,27,1,sounds/dice_80,630,45,OK,tice,<invalid>,816
16228e2ce08082,11,1,sounds/type_0,569,20,OK,dype,<invalid>,635
26228e1fb2d623,29,2,sounds/dice_40,630,100,OK,dice,<invalid>,1304
16228e258094e6,10,1,sounds/dice_80,630,5,OK,tice,<invalid>,694
26228e20d3b275,40,2,sounds/dice_20,630,5,OK,dice,<invalid>,574
16228e2ce08082,12,1,sounds/type_60,568,25,OK,type,<invalid>,652
16228e21526e91,28,1,sounds/dice_80,630,95,OK,tice,<invalid>,822
26228e1fb2d623,30,2,sounds/dice_0,630,115,OK,dice,<invalid>,914
16228e258094e6,11,1,sounds/dice_0,630,5,OK,dice,<invalid>,771
26228e20d3b275,41,2,sounds/dice_60,630,5,OK,tice,<invalid>,630
16228e2ce08082,13,1,sounds/type_40,570,5,OK,type,<invalid>,733
16228e21526e91,29,1,sounds/dice_0,630,30,OK,dice,<invalid>,651
16228e258094e6,12,1,sounds/dice_60,630,5,OK,tice,<invalid>,863
26228e1fb2d623,31,2,sounds/dice_60,630,60,OK,tice,<invalid>,1033
26228e20d3b275,42,2,sounds/dice_80,630,5,OK,tice,<invalid>,1550
16228e2ce08082,14,1,sounds/type_20,569,10,OK,type,<invalid>,624
16228e21526e91,30,1,sounds/dice_20,630,30,OK,tice,<invalid>,670
26228e26e41e3d,0,2,sounds/dice_80,630,35,OK,tice,<invalid>,1249
16228e258094e6,13,1,sounds/dice_40,630,5,OK,dice,<invalid>,1094
26228e1fb2d623,32,2,sounds/dice_60,630,60,OK,tice,<invalid>,1054
26228e20d3b275,43,2,sounds/dice_40,630,5,OK,tice,<invalid>,758
16228e2ce08082,15,1,sounds/type_0,569,0,OK,dype,<invalid>,558
16228e21526e91,31,1,sounds/dice_20,630,35,OK,tice,<invalid>,849
26228e26e41e3d,1,2,sounds/dice_60,630,35,OK,tice,<invalid>,1016
16228e258094e6,14,1,sounds/dice_60,630,5,OK,tice,<invalid>,758
26228e1fb2d623,33,2,sounds/dice_0,630,65,OK,dice,<invalid>,1066
16228e2ce08082,16,1,sounds/type_20,569,5,OK,dype,<invalid>,494
26228e20d3b275,44,2,sounds/dice_0,630,5,OK,dice,<invalid>,618
16228e21526e91,32,1,sounds/dice_80,630,35,OK,tice,<invalid>,1444
16228e258094e6,15,1,sounds/dice_80,630,5,OK,tice,<invalid>,825
26228e26e41e3d,2,2,sounds/dice_20,630,35,OK,dice,<invalid>,1036
16228e2ce08082,17,1,sounds/type_80,569,0,OK,type,<invalid>,685
26228e1fb2d623,34,2,sounds/dice_40,630,65,OK,dice,<invalid>,1054
26228e20d3b275,45,2,sounds/dice_40,630,0,OK,dice,<invalid>,2012
16228e21526e91,33,1,sounds/dice_60,630,30,OK,tice,<invalid>,1162
16228e258094e6,16,1,sounds/dice_20,630,5,OK,dice,<invalid>,657
26228e26e41e3d,3,2,sounds/dice_20,630,155,OK,dice,<invalid>,955
16228e2ce08082,18,1,sounds/type_60,568,0,OK,type,<invalid>,771
26228e1fb2d623,35,2,sounds/dice_20,630,70,OK,dice,<invalid>,935
26228e20d3b275,46,2,sounds/dice_20,630,0,OK,dice,<invalid>,778
16228e258094e6,17,1,sounds/dice_60,630,5,OK,tice,<invalid>,834
16228e21526e91,34,1,sounds/dice_80,630,170,OK,tice,<invalid>,953
16228e2ce08082,19,1,sounds/type_0,569,0,OK,dype,<invalid>,512
26228e26e41e3d,4,2,sounds/dice_20,630,45,OK,dice,<invalid>,906
26228e1fb2d623,36,2,sounds/dice_60,630,90,OK,tice,<invalid>,932
26228e20d3b275,47,2,sounds/dice_60,630,5,OK,tice,<invalid>,763
16228e258094e6,18,1,sounds/dice_80,630,5,OK,tice,<invalid>,744
16228e2ce08082,20,1,sounds/type_20,569,0,OK,dype,<invalid>,746
16228e21526e91,35,1,sounds/dice_60,630,175,OK,tice,<invalid>,1062
26228e1fb2d623,37,2,sounds/dice_20,630,90,OK,dice,<invalid>,970
26228e20d3b275,48,2,sounds/dice_20,630,10,OK,dice,<invalid>,678
16228e258094e6,19,1,sounds/dice_0,630,20,OK,dice,<invalid>,794
26228e26e41e3d,5,2,sounds/dice_40,630,95,slow_response,tice,<invalid>,3021
16228e2ce08082,21,1,sounds/type_80,569,0,OK,type,<invalid>,660
16228e21526e91,36,1,sounds/dice_60,630,80,OK,tice,<invalid>,981
26228e20d3b275,49,2,sounds/dice_40,630,0,OK,tice,<invalid>,869
26228e1fb2d623,38,2,sounds/dice_60,630,145,OK,tice,<invalid>,922
16228e2ce08082,22,1,sounds/type_60,568,0,OK,type,<invalid>,697
16228e258094e6,20,1,sounds/dice_40,630,5,OK,tice,<invalid>,857
26228e26e41e3d,6,2,sounds/dice_0,630,70,OK,dice,<invalid>,1164
16228e21526e91,37,1,sounds/dice_40,630,80,OK,tice,<invalid>,928
26228e1fb2d623,39,2,sounds/dice_80,630,135,OK,tice,<invalid>,1043
16228e258094e6,21,1,sounds/dice_60,630,5,OK,tice,<invalid>,892
26228e26e41e3d,7,2,sounds/dice_20,630,65,OK,dice,<invalid>,860
16228e21526e91,38,1,sounds/dice_40,630,295,OK,tice,<invalid>,1866
16228e2ce08082,23,1,sounds/type_20,569,0,slow_response,dype,<invalid>,3427
26228e1fb2d623,40,2,sounds/dice_80,630,340,OK,tice,<invalid>,944
16228e258094e6,22,1,sounds/dice_40,630,5,OK,tice,<invalid>,902
26228e26e41e3d,8,2,sounds/dice_20,630,45,OK,dice,<invalid>,1049
16228e2ce08082,24,1,sounds/type_40,570,0,OK,type,<invalid>,709
16228e21526e91,39,1,sounds/dice_80,630,125,OK,tice,<invalid>,1091
16228e258094e6,23,1,sounds/dice_80,630,5,OK,tice,<invalid>,757
26228e1fb2d623,41,2,sounds/dice_0,630,395,OK,dice,<invalid>,956
26228e26e41e3d,9,2,sounds/dice_0,630,100,OK,dice,<invalid>,840
16228e2ce08082,25,1,sounds/type_20,569,5,OK,dype,<invalid>,676
16228e258094e6,24,1,sounds/dice_0,630,5,OK,dice,<invalid>,605
16228e21526e91,40,1,sounds/dice_60,630,60,OK,tice,<invalid>,1228
26228e26e41e3d,10,2,sounds/dice_0,630,115,OK,dice,<invalid>,1010
26228e1fb2d623,42,2,sounds/dice_40,630,200,OK,dice,<invalid>,2013
16228e2ce08082,26,1,sounds/type_60,568,0,OK,type,<invalid>,573
16228e258094e6,25,1,sounds/dice_20,630,5,OK,dice,<invalid>,869
16228e21526e91,41,1,sounds/dice_80,630,30,OK,tice,<invalid>,849
26228e26e41e3d,11,2,sounds/dice_60,630,45,OK,tice,<invalid>,914
16228e2ce08082,27,1,sounds/type_80,569,5,OK,type,<invalid>,631
26228e1fb2d623,43,2,sounds/dice_40,630,100,OK,dice,<invalid>,1297
16228e258094e6,26,1,sounds/dice_0,630,5,OK,dice,<invalid>,899
26228e26e41e3d,12,2,sounds/dice_40,630,40,OK,tice,<invalid>,835
16228e21526e91,42,1,sounds/dice_40,630,35,OK,dice,<invalid>,2049
16228e2ce08082,28,1,sounds/type_80,569,0,OK,type,<invalid>,822
16228e258094e6,27,1,sounds/dice_40,630,5,OK,tice,<invalid>,604
26228e1fb2d623,44,2,sounds/dice_80,630,100,OK,tice,<invalid>,965
26228e26e41e3d,13,2,sounds/dice_0,630,90,OK,dice,<invalid>,714
16228e2ce08082,29,1,sounds/type_60,568,0,OK,type,<invalid>,623
16228e21526e91,43,1,sounds/dice_20,630,110,OK,dice,<invalid>,778
16228e258094e6,28,1,sounds/dice_20,630,5,OK,dice,<invalid>,701
26228e1fb2d623,45,2,sounds/dice_40,630,80,OK,dice,<invalid>,1261
16228e2ce08082,30,1,sounds/type_0,569,15,OK,dype,<invalid>,634
26228e26e41e3d,14,2,sounds/dice_0,630,40,OK,dice,<invalid>,913
16228e21526e91,44,1,sounds/dice_80,630,30,OK,tice,<invalid>,789
16228e258094e6,29,1,sounds/dice_20,630,5,OK,tice,<invalid>,778
26228e1fb2d623,46,2,sounds/dice_20,630,145,OK,dice,<invalid>,923
16228e2ce08082,31,1,sounds/type_0,569,5,OK,dype,<invalid>,437
26228e26e41e3d,15,2,sounds/dice_60,630,50,OK,tice,<invalid>,731
16228e21526e91,45,1,sounds/dice_0,630,100,OK,dice,<invalid>,649
16228e258094e6,30,1,sounds/dice_60,630,35,OK,tice,<invalid>,657
16228e2ce08082,32,1,sounds/type_0,569,10,OK,dype,<invalid>,507
26228e1fb2d623,47,2,sounds/dice_40,630,195,OK,dice,<invalid>,1054
26228e26e41e3d,16,2,sounds/dice_40,630,40,OK,tice,<invalid>,695
16228e21526e91,46,1,sounds/dice_80,630,70,OK,tice,<invalid>,1216
16228e258094e6,31,1,sounds/dice_40,630,5,OK,tice,<invalid>,765
16228e2ce08082,33,1,sounds/type_40,570,5,OK,type,<invalid>,1206
26228e26e41e3d,17,2,sounds/dice_80,630,105,OK,tice,<invalid>,809
26228e1fb2d623,48,2,sounds/dice_80,630,220,OK,tice,<invalid>,981
16228e258094e6,32,1,sounds/dice_0,630,5,OK,dice,<invalid>,706
16228e21526e91,47,1,sounds/dice_40,630,45,OK,tice,<invalid>,1093
16228e2ce08082,34,1,sounds/type_20,569,0,OK,type,<invalid>,1122
26228e26e41e3d,18,2,sounds/dice_60,630,185,OK,tice,<invalid>,904
26228e1fb2d623,49,2,sounds/dice_0,630,115,OK,dice,<invalid>,976
16228e258094e6,33,1,sounds/dice_60,630,5,OK,tice,<invalid>,925
16228e21526e91,48,1,sounds/dice_60,630,180,OK,tice,<invalid>,866
16228e2ce08082,35,1,sounds/type_80,569,5,OK,type,<invalid>,620
26228e26e41e3d,19,2,sounds/dice_80,630,80,OK,tice,<invalid>,1001
16228e258094e6,34,1,sounds/dice_60,630,5,OK,tice,<invalid>,819
16228e21526e91,49,1,sounds/dice_20,630,105,OK,dice,<invalid>,651
16228e2ce08082,36,1,sounds/type_40,570,5,OK,type,<invalid>,889
26228e26e41e3d,20,2,sounds/dice_0,630,100,OK,dice,<invalid>,891
16228e258094e6,35,1,sounds/dice_80,630,35,OK,tice,<invalid>,884
16228e2ce08082,37,1,sounds/type_20,569,5,OK,type,<invalid>,785
16228e258094e6,36,1,sounds/dice_0,630,5,OK,dice,<invalid>,684
26228e26e41e3d,21,2,sounds/dice_20,630,90,OK,dice,<invalid>,1171
16228e2ce08082,38,1,sounds/type_40,570,5,OK,type,<invalid>,697
16228e258094e6,37,1,sounds/dice_80,630,5,OK,tice,<invalid>,805
26228e26e41e3d,22,2,sounds/dice_0,630,85,OK,dice,<invalid>,953
16228e2ce08082,39,1,sounds/type_60,568,5,OK,type,<invalid>,842
16228e258094e6,38,1,sounds/dice_40,630,5,OK,tice,<invalid>,1050
26228e26e41e3d,23,2,sounds/dice_40,630,80,OK,tice,<invalid>,871
16228e2ce08082,40,1,sounds/type_0,569,5,OK,dype,<invalid>,490
16228e258094e6,39,1,sounds/dice_60,630,5,OK,tice,<invalid>,937
26228e26e41e3d,24,2,sounds/dice_80,630,95,OK,tice,<invalid>,921
16228e2ce08082,41,1,sounds/type_60,568,5,OK,type,<invalid>,699
16228e258094e6,40,1,sounds/dice_60,630,5,OK,tice,<invalid>,820
26228e26e41e3d,25,2,sounds/dice_60,630,120,OK,tice,<invalid>,812
16228e2ce08082,42,1,sounds/type_40,570,10,OK,type,<invalid>,900
16228e258094e6,41,1,sounds/dice_80,630,5,OK,tice,<invalid>,842
26228e26e41e3d,26,2,sounds/dice_40,630,55,OK,tice,<invalid>,711
16228e2ce08082,43,1,sounds/type_80,569,5,OK,type,<invalid>,866
16228e258094e6,42,1,sounds/dice_20,630,5,OK,dice,<invalid>,697
26228e26e41e3d,27,2,sounds/dice_20,630,70,OK,dice,<invalid>,811
16228e2ce08082,44,1,sounds/type_80,569,5,OK,type,<invalid>,1047
16228e258094e6,43,1,sounds/dice_20,630,5,OK,tice,<invalid>,801
26228e26e41e3d,28,2,sounds/dice_0,630,110,OK,dice,<invalid>,778
16228e2ce08082,45,1,sounds/type_60,568,5,OK,type,<invalid>,726
16228e258094e6,44,1,sounds/dice_0,630,5,OK,dice,<invalid>,863
26228e26e41e3d,29,2,sounds/dice_40,630,50,OK,tice,<invalid>,660
16228e2ce08082,46,1,sounds/type_40,570,10,OK,dype,<invalid>,1000
16228e258094e6,45,1,sounds/dice_0,630,5,OK,dice,<invalid>,1004
26228e26e41e3d,30,2,sounds/dice_40,630,120,OK,tice,<invalid>,872
16228e2ce08082,47,1,sounds/type_40,570,5,OK,type,<invalid>,925
16228e258094e6,46,1,sounds/dice_20,630,5,OK,dice,<invalid>,902
26228e26e41e3d,31,2,sounds/dice_0,630,155,OK,dice,<invalid>,866
16228e2ce08082,48,1,sounds/type_20,569,5,OK,dype,<invalid>,820
16228e258094e6,47,1,sounds/dice_20,630,5,OK,dice,<invalid>,763
26228e26e41e3d,32,2,sounds/dice_80,630,100,OK,tice,<invalid>,992
16228e2ce08082,49,1,sounds/type_0,569,10,OK,dype,<invalid>,516
16228e258094e6,48,1,sounds/dice_0,630,5,OK,dice,<invalid>,703
26228e26e41e3d,33,2,sounds/dice_80,630,90,OK,tice,<invalid>,1131
16228e258094e6,49,1,sounds/dice_80,630,5,OK,tice,<invalid>,914
26228e26e41e3d,34,2,sounds/dice_60,630,105,OK,tice,<invalid>,1099
26228e26e41e3d,35,2,sounds/dice_40,630,105,OK,dice,<invalid>,1293
26228e26e41e3d,36,2,sounds/dice_40,630,100,OK,tice,<invalid>,728
26228e26e41e3d,37,2,sounds/dice_20,630,110,OK,dice,<invalid>,950
26228e26e41e3d,38,2,sounds/dice_80,630,100,OK,tice,<invalid>,910
26228e26e41e3d,39,2,sounds/dice_80,630,40,OK,tice,<invalid>,927
26228e26e41e3d,40,2,sounds/dice_60,630,120,OK,tice,<invalid>,805
26228e26e41e3d,41,2,sounds/dice_20,630,105,OK,dice,<invalid>,855
16228e2ce08082,0,1,sounds/dice_80,630,85,incorrect_response,dice,<invalid>,2379
26228e26e41e3d,42,2,sounds/dice_0,630,95,OK,dice,<invalid>,1288
16228e2ce08082,1,1,sounds/dice_20,630,30,OK,dice,<invalid>,914
26228e26e41e3d,43,2,sounds/dice_60,630,95,OK,tice,<invalid>,814
16228e2ce08082,2,1,sounds/dice_0,630,30,OK,dice,<invalid>,659
26228e26e41e3d,44,2,sounds/dice_80,630,55,OK,tice,<invalid>,1022
16228e2ce08082,3,1,sounds/dice_40,630,35,OK,tice,<invalid>,690
16228e2ce08082,4,1,sounds/dice_80,630,10,OK,tice,<invalid>,649
26228e26e41e3d,45,2,sounds/dice_60,630,150,OK,tice,<invalid>,1064
16228e2ce08082,5,1,sounds/dice_40,630,5,OK,tice,<invalid>,507
26228e26e41e3d,46,2,sounds/dice_40,630,115,OK,dice,<invalid>,1161
16228e2ce08082,6,1,sounds/dice_60,630,35,OK,tice,<invalid>,709
26228e26e41e3d,47,2,sounds/dice_80,630,110,OK,tice,<invalid>,931
16228e2ce08082,7,1,sounds/dice_20,630,5,OK,dice,<invalid>,443
26228e26e41e3d,48,2,sounds/dice_60,630,110,OK,tice,<invalid>,1225
16228e2ce08082,8,1,sounds/dice_60,630,5,OK,tice,<invalid>,634
26228e26e41e3d,49,2,sounds/dice_20,630,95,OK,dice,<invalid>,978
16228e2ce08082,9,1,sounds/dice_40,630,5,OK,tice,<invalid>,688
16228e2ce08082,10,1,sounds/dice_80,630,5,OK,tice,<invalid>,775
16228e2ce08082,11,1,sounds/dice_20,630,5,OK,dice,<invalid>,472
16228e2ce08082,12,1,sounds/dice_40,630,5,OK,tice,<invalid>,570
16228e2ce08082,13,1,sounds/dice_0,630,5,OK,dice,<invalid>,473
16228e2ce08082,14,1,sounds/dice_80,630,10,OK,tice,<invalid>,652
16228e2ce08082,15,1,sounds/dice_60,630,5,OK,tice,<invalid>,483
16228e2ce08082,16,1,sounds/dice_20,630,5,OK,dice,<invalid>,566
16228e2ce08082,17,1,sounds/dice_0,630,5,OK,dice,<invalid>,534
16228e2ce08082,18,1,sounds/dice_40,630,10,OK,tice,<invalid>,581
16228e2ce08082,19,1,sounds/dice_20,630,5,OK,tice,<invalid>,458
16228e2ce08082,20,1,sounds/dice_80,630,10,OK,tice,<invalid>,808
16228e2ce08082,21,1,sounds/dice_0,630,5,OK,dice,<invalid>,513
16228e2ce08082,22,1,sounds/dice_60,630,5,OK,tice,<invalid>,842
16228e2ce08082,23,1,sounds/dice_40,630,5,OK,tice,<invalid>,736
16228e2ce08082,24,1,sounds/dice_40,630,5,OK,tice,<invalid>,667
16228e2ce08082,25,1,sounds/dice_80,630,10,OK,tice,<invalid>,611
16228e2ce08082,26,1,sounds/dice_0,630,5,OK,dice,<invalid>,542
16228e2ce08082,27,1,sounds/dice_80,630,10,OK,tice,<invalid>,745
16228e2ce08082,28,1,sounds/dice_0,630,5,OK,dice,<invalid>,511
16228e2ce08082,29,1,sounds/dice_20,630,10,OK,dice,<invalid>,578
16228e2ce08082,30,1,sounds/dice_60,630,5,OK,tice,<invalid>,656
16228e2ce08082,31,1,sounds/dice_20,630,5,OK,dice,<invalid>,465
16228e2ce08082,32,1,sounds/dice_60,630,10,OK,tice,<invalid>,664
16228e2ce08082,33,1,sounds/dice_20,630,10,OK,dice,<invalid>,532
16228e2ce08082,34,1,sounds/dice_40,630,45,OK,dice,<invalid>,500
16228e2ce08082,35,1,sounds/dice_0,630,10,OK,dice,<invalid>,616
16228e2ce08082,36,1,sounds/dice_80,630,5,OK,tice,<invalid>,592
16228e2ce08082,37,1,sounds/dice_0,630,10,OK,dice,<invalid>,504
16228e2ce08082,38,1,sounds/dice_0,630,5,OK,dice,<invalid>,565
16228e2ce08082,39,1,sounds/dice_40,630,5,OK,tice,<invalid>,680
16228e2ce08082,40,1,sounds/dice_20,630,5,OK,dice,<invalid>,977
16228e2ce08082,41,1,sounds/dice_80,630,5,OK,tice,<invalid>,686
16228e2ce08082,42,1,sounds/dice_40,630,10,OK,tice,<invalid>,791
16228e2ce08082,43,1,sounds/dice_60,630,5,OK,dice,<invalid>,779
16228e2ce08082,44,1,sounds/dice_20,630,5,OK,dice,<invalid>,967
16228e2ce08082,45,1,sounds/dice_60,630,5,OK,tice,<invalid>,842
16228e2ce08082,46,1,sounds/dice_0,630,40,OK,dice,<invalid>,721
16228e2ce08082,47,1,sounds/dice_60,630,10,OK,tice,<invalid>,675
16228e2ce08082,48,1,sounds/dice_60,630,5,OK,tice,<invalid>,1210
16228e2ce08082,49,1,sounds/dice_80,630,5,OK,tice,<invalid>,828
1622a516d5edf1,0,1,sounds/type_60,568,125,slow_response,type,<invalid>,3027
1622a516d5edf1,1,1,sounds/type_60,568,0,OK,type,<invalid>,753
1622a516d5edf1,2,1,sounds/type_60,568,0,OK,type,<invalid>,1188
1622a516d5edf1,3,1,sounds/type_40,570,45,OK,type,<invalid>,1361
1622a516d5edf1,4,1,sounds/type_0,569,40,OK,dype,<invalid>,465
1622a516d5edf1,5,1,sounds/type_80,569,135,OK,type,<invalid>,636
1622a516d5edf1,6,1,sounds/type_40,570,5,OK,dype,<invalid>,928
1622a516d5edf1,7,1,sounds/type_80,569,0,OK,type,<invalid>,694
1622a516d5edf1,8,1,sounds/type_40,570,0,OK,type,<invalid>,1366
1622a516d5edf1,9,1,sounds/type_80,569,0,OK,type,<invalid>,787
1622a516d5edf1,10,1,sounds/type_80,569,0,OK,type,<invalid>,663
1622a516d5edf1,11,1,sounds/type_0,569,0,OK,dype,<invalid>,356
1622a516d5edf1,12,1,sounds/type_40,570,0,OK,dype,<invalid>,1186
1622a516d5edf1,13,1,sounds/type_80,569,0,OK,type,<invalid>,559
1622a516d5edf1,14,1,sounds/type_80,569,0,OK,type,<invalid>,599
1622a516d5edf1,15,1,sounds/type_0,569,0,OK,dype,<invalid>,477
1622a516d5edf1,16,1,sounds/type_20,569,90,OK,dype,<invalid>,366
1622a516d5edf1,17,1,sounds/type_60,568,0,OK,type,<invalid>,633
1622a516d5edf1,18,1,sounds/type_60,568,0,OK,type,<invalid>,514
1622a516d5edf1,19,1,sounds/type_60,568,0,OK,type,<invalid>,655
1622a516d5edf1,20,1,sounds/type_20,569,0,OK,dype,<invalid>,370
1622a516d5edf1,21,1,sounds/type_20,569,5,OK,dype,<invalid>,359
1622a516d5edf1,22,1,sounds/type_40,570,5,OK,dype,<invalid>,350
1622a516d5edf1,23,1,sounds/type_80,569,0,OK,type,<invalid>,663
1622a516d5edf1,24,1,sounds/type_60,568,0,OK,type,<invalid>,630
1622a516d5edf1,25,1,sounds/type_20,569,0,OK,dype,<invalid>,442
1622a516d5edf1,26,1,sounds/type_60,568,0,OK,type,<invalid>,875
1622a516d5edf1,27,1,sounds/type_60,568,5,OK,type,<invalid>,879
1622a516d5edf1,28,1,sounds/type_40,570,0,OK,type,<invalid>,764
1622a516d5edf1,29,1,sounds/type_20,569,0,OK,dype,<invalid>,485
1622a516d5edf1,30,1,sounds/type_80,569,0,OK,type,<invalid>,684
1622a516d5edf1,31,1,sounds/type_40,570,0,OK,type,<invalid>,581
1622a516d5edf1,32,1,sounds/type_40,570,0,OK,type,<invalid>,683
1622a516d5edf1,33,1,sounds/type_80,569,0,OK,type,<invalid>,780
1622a516d5edf1,34,1,sounds/type_0,569,5,OK,dype,<invalid>,371
1622a516d5edf1,35,1,sounds/type_20,569,0,OK,dype,<invalid>,681
1622a516d5edf1,36,1,sounds/type_0,569,0,OK,dype,<invalid>,450
1622a516d5edf1,37,1,sounds/type_80,569,0,OK,type,<invalid>,525
1622a516d5edf1,38,1,sounds/type_40,570,5,OK,type,<invalid>,1307
1622a516d5edf1,39,1,sounds/type_60,568,0,OK,type,<invalid>,609
1622a516d5edf1,40,1,sounds/type_0,569,0,OK,dype,<invalid>,338
1622a516d5edf1,41,1,sounds/type_20,569,0,OK,dype,<invalid>,571
1622a516d5edf1,42,1,sounds/type_20,569,0,OK,dype,<invalid>,490
1622a516d5edf1,43,1,sounds/type_40,570,0,OK,dype,<invalid>,777
1622a516d5edf1,44,1,sounds/type_0,569,0,OK,dype,<invalid>,546
1622a516d5edf1,45,1,sounds/type_0,569,0,OK,dype,<invalid>,674
1622a516d5edf1,46,1,sounds/type_0,569,0,OK,dype,<invalid>,385
1622a516d5edf1,47,1,sounds/type_20,569,0,OK,dype,<invalid>,733
1622a516d5edf1,48,1,sounds/type_0,569,0,OK,dype,<invalid>,451
1622a516d5edf1,49,1,sounds/type_20,569,0,OK,dype,<invalid>,868
1622a516d5edf1,0,1,sounds/dice_0,630,435,OK,dice,<invalid>,804
1622a516d5edf1,1,1,sounds/dice_20,630,75,OK,dice,<invalid>,436
1622a516d5edf1,2,1,sounds/dice_60,630,70,OK,tice,<invalid>,585
1622a516d5edf1,3,1,sounds/dice_20,630,0,OK,dice,<invalid>,363
1622a516d5edf1,4,1,sounds/dice_80,630,230,OK,tice,<invalid>,625
1622a516d5edf1,5,1,sounds/dice_60,630,0,OK,tice,<invalid>,541
1622a516d5edf1,6,1,sounds/dice_0,630,0,OK,dice,<invalid>,439
1622a516d5edf1,7,1,sounds/dice_40,630,85,OK,tice,<invalid>,456
1622a516d5edf1,8,1,sounds/dice_20,630,0,OK,dice,<invalid>,669
1622a516d5edf1,9,1,sounds/dice_40,630,0,OK,tice,<invalid>,510
1622a516d5edf1,10,1,sounds/dice_40,630,0,OK,tice,<invalid>,792
1622a516d5edf1,11,1,sounds/dice_0,630,0,OK,dice,<invalid>,424
1622a516d5edf1,12,1,sounds/dice_20,630,0,OK,dice,<invalid>,630
1622a516d5edf1,13,1,sounds/dice_60,630,0,OK,tice,<invalid>,593
1622a516d5edf1,14,1,sounds/dice_80,630,0,OK,tice,<invalid>,720
1622a516d5edf1,15,1,sounds/dice_40,630,0,OK,tice,<invalid>,640
1622a516d5edf1,16,1,sounds/dice_60,630,0,OK,tice,<invalid>,598
1622a516d5edf1,17,1,sounds/dice_80,630,0,OK,tice,<invalid>,495
1622a516d5edf1,18,1,sounds/dice_80,630,0,OK,tice,<invalid>,589
1622a516d5edf1,19,1,sounds/dice_20,630,0,OK,dice,<invalid>,567
1622a516d5edf1,20,1,sounds/dice_0,630,0,incorrect_response,tice,<invalid>,460
1622a516d5edf1,21,1,sounds/dice_40,630,0,OK,tice,<invalid>,861
1622a516d5edf1,22,1,sounds/dice_20,630,0,OK,dice,<invalid>,586
1622a516d5edf1,23,1,sounds/dice_60,630,0,OK,tice,<invalid>,650
1622a516d5edf1,24,1,sounds/dice_0,630,0,OK,dice,<invalid>,580
1622a516d5edf1,25,1,sounds/dice_60,630,5,OK,tice,<invalid>,631
1622a516d5edf1,26,1,sounds/dice_60,630,0,OK,tice,<invalid>,657
1622a516d5edf1,27,1,sounds/dice_20,630,0,OK,dice,<invalid>,397
1622a516d5edf1,28,1,sounds/dice_80,630,0,OK,tice,<invalid>,591
1622a516d5edf1,29,1,sounds/dice_0,630,0,OK,dice,<invalid>,418
1622a516d5edf1,30,1,sounds/dice_80,630,0,OK,tice,<invalid>,1152
1622a516d5edf1,31,1,sounds/dice_20,630,0,OK,dice,<invalid>,484
1622a516d5edf1,32,1,sounds/dice_60,630,0,OK,tice,<invalid>,625
1622a516d5edf1,33,1,sounds/dice_0,630,0,OK,dice,<invalid>,731
1622a516d5edf1,34,1,sounds/dice_40,630,5,OK,tice,<invalid>,561
1622a516d5edf1,35,1,sounds/dice_40,630,0,OK,tice,<invalid>,750
1622a516d5edf1,36,1,sounds/dice_80,630,0,OK,tice,<invalid>,635
1622a516d5edf1,37,1,sounds/dice_40,630,5,OK,tice,<invalid>,583
1622a516d5edf1,38,1,sounds/dice_40,630,0,OK,tice,<invalid>,727
1622a516d5edf1,39,1,sounds/dice_20,630,0,OK,dice,<invalid>,404
1622a516d5edf1,40,1,sounds/dice_40,630,0,OK,tice,<invalid>,636
1622a516d5edf1,41,1,sounds/dice_20,630,0,OK,dice,<invalid>,457
1622a516d5edf1,42,1,sounds/dice_80,630,0,OK,tice,<invalid>,585
1622a516d5edf1,43,1,sounds/dice_0,630,5,OK,dice,<invalid>,383
1622a516d5edf1,44,1,sounds/dice_80,630,0,OK,tice,<invalid>,608
1622a516d5edf1,45,1,sounds/dice_0,630,0,OK,dice,<invalid>,380
1622a516d5edf1,46,1,sounds/dice_60,630,0,OK,tice,<invalid>,571
1622a516d5edf1,47,1,sounds/dice_60,630,0,OK,tice,<invalid>,704
1622a516d5edf1,48,1,sounds/dice_80,630,0,OK,tice,<invalid>,886
1622a516d5edf1,49,1,sounds/dice_0,630,0,OK,dice,<invalid>,392
1622ac851c9a2b,0,1,sounds/type_0,569,45,slow_response,dype,<invalid>,6125
1622ac851c9a2b,1,1,sounds/type_60,568,60,OK,type,<invalid>,1675
1622ac851c9a2b,2,1,sounds/type_40,570,45,OK,dype,<invalid>,1292
1622ac851c9a2b,3,1,sounds/type_60,568,0,OK,type,<invalid>,1390
1622ac851c9a2b,4,1,sounds/type_0,569,0,OK,dype,<invalid>,1034
1622ac851c9a2b,5,1,sounds/type_0,569,0,OK,dype,<invalid>,967
1622ac851c9a2b,6,1,sounds/type_60,568,0,OK,type,<invalid>,1791
1622ac851c9a2b,7,1,sounds/type_60,568,0,OK,type,<invalid>,1769
1622ac851c9a2b,8,1,sounds/type_20,569,30,OK,dype,<invalid>,1956
1622ac851c9a2b,9,1,sounds/type_20,569,0,OK,dype,<invalid>,1778
1622ac851c9a2b,10,1,sounds/type_80,569,70,OK,type,<invalid>,916
1622ac851c9a2b,11,1,sounds/type_0,569,0,OK,dype,<invalid>,984
1622ac851c9a2b,12,1,sounds/type_80,569,0,OK,type,<invalid>,847
1622ac851c9a2b,13,1,sounds/type_80,569,0,OK,type,<invalid>,950
1622ac851c9a2b,14,1,sounds/type_20,569,0,OK,dype,<invalid>,843
1622ac851c9a2b,15,1,sounds/type_80,569,0,OK,type,<invalid>,1062
1622ac851c9a2b,16,1,sounds/type_40,570,5,OK,dype,<invalid>,1680
1622ac851c9a2b,17,1,sounds/type_60,568,5,OK,type,<invalid>,870
1622ac851c9a2b,18,1,sounds/type_80,569,0,OK,type,<invalid>,786
1622ac851c9a2b,19,1,sounds/type_60,568,0,OK,type,<invalid>,753
1622ac851c9a2b,20,1,sounds/type_40,570,0,OK,type,<invalid>,816
1622ac851c9a2b,21,1,sounds/type_20,569,0,OK,dype,<invalid>,869
1622ac851c9a2b,22,1,sounds/type_40,570,0,OK,type,<invalid>,763
1622ac851c9a2b,23,1,sounds/type_20,569,0,OK,dype,<invalid>,1175
1622ac851c9a2b,24,1,sounds/type_40,570,0,OK,dype,<invalid>,1071
1622ac851c9a2b,25,1,sounds/type_20,569,0,OK,dype,<invalid>,1126
1622ac851c9a2b,26,1,sounds/type_20,569,0,OK,dype,<invalid>,870
1622ac851c9a2b,27,1,sounds/type_60,568,0,OK,type,<invalid>,815
1622ac851c9a2b,28,1,sounds/type_0,569,5,OK,dype,<invalid>,832
1622ac851c9a2b,29,1,sounds/type_20,569,0,OK,dype,<invalid>,987
1622ac851c9a2b,30,1,sounds/type_80,569,5,incorrect_response,dype,<invalid>,798
1622ac851c9a2b,31,1,sounds/type_60,568,5,fast_response,type,<invalid>,49
1622ac851c9a2b,32,1,sounds/type_80,569,0,OK,type,<invalid>,866
1622ac851c9a2b,33,1,sounds/type_80,569,0,OK,type,<invalid>,949
1622ac851c9a2b,34,1,sounds/type_0,569,5,OK,dype,<invalid>,1175
1622ac851c9a2b,35,1,sounds/type_80,569,0,OK,type,<invalid>,1046
1622ac851c9a2b,36,1,sounds/type_40,570,0,OK,dype,<invalid>,961
1622ac851c9a2b,37,1,sounds/type_0,569,0,OK,dype,<invalid>,1093
1622ac851c9a2b,38,1,sounds/type_0,569,0,OK,dype,<invalid>,1096
1622ac851c9a2b,39,1,sounds/type_20,569,0,OK,dype,<invalid>,1109
1622ac851c9a2b,40,1,sounds/type_40,570,0,OK,dype,<invalid>,1129
1622ac851c9a2b,41,1,sounds/type_20,569,0,OK,dype,<invalid>,984
1622ac851c9a2b,42,1,sounds/type_40,570,0,OK,dype,<invalid>,925
1622ac851c9a2b,43,1,sounds/type_60,568,5,OK,type,<invalid>,918
1622ac851c9a2b,44,1,sounds/type_80,569,0,OK,type,<invalid>,881
1622ac851c9a2b,45,1,sounds/type_0,569,0,OK,dype,<invalid>,828
1622ac851c9a2b,46,1,sounds/type_40,570,0,OK,dype,<invalid>,1052
1622ac851c9a2b,47,1,sounds/type_40,570,5,OK,type,<invalid>,940
1622ac851c9a2b,48,1,sounds/type_60,568,0,OK,type,<invalid>,888
1622ac851c9a2b,49,1,sounds/type_0,569,0,OK,dype,<invalid>,909
1622ac851c9a2b,0,1,sounds/dice_40,630,25,slow_response,dice,<invalid>,2809
1622ac851c9a2b,1,1,sounds/dice_80,630,25,OK,tice,<invalid>,982
1622ac851c9a2b,2,1,sounds/dice_80,630,0,OK,tice,<invalid>,803
1622ac851c9a2b,3,1,sounds/dice_0,630,150,OK,dice,<invalid>,647
1622ac851c9a2b,4,1,sounds/dice_40,630,0,OK,dice,<invalid>,1125
1622ac851c9a2b,5,1,sounds/dice_0,630,5,OK,dice,<invalid>,693
1622ac851c9a2b,6,1,sounds/dice_80,630,0,OK,tice,<invalid>,954
1622ac851c9a2b,7,1,sounds/dice_40,630,5,OK,dice,<invalid>,1170
1622ac851c9a2b,8,1,sounds/dice_0,630,0,OK,dice,<invalid>,762
1622ac851c9a2b,9,1,sounds/dice_40,630,0,OK,tice,<invalid>,758
1622ac851c9a2b,10,1,sounds/dice_80,630,0,OK,tice,<invalid>,866
1622ac851c9a2b,11,1,sounds/dice_40,630,5,OK,tice,<invalid>,620
1622ac851c9a2b,12,1,sounds/dice_0,630,0,OK,dice,<invalid>,735
1622ac851c9a2b,13,1,sounds/dice_0,630,0,OK,dice,<invalid>,690
1622ac851c9a2b,14,1,sounds/dice_20,630,30,OK,dice,<invalid>,734
1622ac851c9a2b,15,1,sounds/dice_60,630,30,OK,tice,<invalid>,749
1622ac851c9a2b,16,1,sounds/dice_20,630,0,OK,dice,<invalid>,901
1622ac851c9a2b,17,1,sounds/dice_20,630,0,OK,dice,<invalid>,887
1622ac851c9a2b,18,1,sounds/dice_20,630,0,OK,dice,<invalid>,1230
1622ac851c9a2b,19,1,sounds/dice_60,630,0,OK,tice,<invalid>,823
1622ac851c9a2b,20,1,sounds/dice_20,630,0,OK,dice,<invalid>,752
1622ac851c9a2b,21,1,sounds/dice_0,630,0,OK,dice,<invalid>,772
1622ac851c9a2b,22,1,sounds/dice_40,630,0,OK,tice,<invalid>,738
1622ac851c9a2b,23,1,sounds/dice_80,630,5,OK,tice,<invalid>,831
1622ac851c9a2b,24,1,sounds/dice_80,630,5,incorrect_response,dice,<invalid>,876
1622ac851c9a2b,25,1,sounds/dice_60,630,0,OK,tice,<invalid>,884
1622ac851c9a2b,26,1,sounds/dice_60,630,0,OK,tice,<invalid>,723
1622ac851c9a2b,27,1,sounds/dice_60,630,0,OK,tice,<invalid>,823
1622ac851c9a2b,28,1,sounds/dice_20,630,5,OK,dice,<invalid>,964
1622ac851c9a2b,29,1,sounds/dice_20,630,0,OK,dice,<invalid>,875
1622ac851c9a2b,30,1,sounds/dice_80,630,0,OK,tice,<invalid>,814
1622ac851c9a2b,31,1,sounds/dice_60,630,0,OK,tice,<invalid>,718
1622ac851c9a2b,32,1,sounds/dice_20,630,0,OK,dice,<invalid>,801
1622ac851c9a2b,33,1,sounds/dice_60,630,0,OK,tice,<invalid>,647
1622ac851c9a2b,34,1,sounds/dice_0,630,5,OK,dice,<invalid>,823
1622ac851c9a2b,35,1,sounds/dice_60,630,0,OK,tice,<invalid>,961
1622ac851c9a2b,36,1,sounds/dice_20,630,0,OK,dice,<invalid>,655
1622ac851c9a2b,37,1,sounds/dice_80,630,0,OK,tice,<invalid>,779
1622ac851c9a2b,38,1,sounds/dice_60,630,0,OK,tice,<invalid>,846
1622ac851c9a2b,39,1,sounds/dice_80,630,0,OK,tice,<invalid>,908
1622ac851c9a2b,40,1,sounds/dice_0,630,0,OK,dice,<invalid>,766
1622ac851c9a2b,41,1,sounds/dice_0,630,0,OK,dice,<invalid>,765
1622ac851c9a2b,42,1,sounds/dice_40,630,10,OK,tice,<invalid>,792
1622ac851c9a2b,43,1,sounds/dice_60,630,0,OK,tice,<invalid>,797
1622ac851c9a2b,44,1,sounds/dice_40,630,0,OK,dice,<invalid>,1118
1622ac851c9a2b,45,1,sounds/dice_40,630,0,OK,dice,<invalid>,1026
1622ac851c9a2b,46,1,sounds/dice_80,630,0,OK,tice,<invalid>,771
1622ac851c9a2b,47,1,sounds/dice_20,630,0,OK,dice,<invalid>,772
1622ac851c9a2b,48,1,sounds/dice_0,630,0,OK,dice,<invalid>,873
1622ac851c9a2b,49,1,sounds/dice_40,630,0,OK,tice,<invalid>,693
1622baa6c055f3,0,1,sounds/type_0,569,1720,slow_response,dype,<invalid>,11280
1622baa6c055f3,1,1,sounds/type_60,568,260,slow_response,dype,<invalid>,3950
1622baa6c055f3,2,1,sounds/type_80,569,125,incorrect_response,dype,<invalid>,976
1622baa6c055f3,3,1,sounds/type_0,569,85,OK,dype,<invalid>,2066
1622baa6c055f3,4,1,sounds/type_20,569,105,slow_response,type,<invalid>,3128
1622baa6c055f3,5,1,sounds/type_60,568,130,OK,type,<invalid>,1272
1622baa6c055f3,6,1,sounds/type_60,568,90,OK,type,<invalid>,1132
1622baa6c055f3,7,1,sounds/type_0,569,285,OK,dype,<invalid>,856
1622baa6c055f3,8,1,sounds/type_60,568,265,OK,dype,<invalid>,1243
1622baa6c055f3,9,1,sounds/type_20,569,100,OK,dype,<invalid>,1201
1622baa6c055f3,10,1,sounds/type_80,569,85,OK,type,<invalid>,1330
1622baa6c055f3,11,1,sounds/type_0,569,70,OK,dype,<invalid>,1187
1622baa6c055f3,12,1,sounds/type_40,570,320,OK,dype,<invalid>,1243
1622baa6c055f3,13,1,sounds/type_60,568,135,OK,dype,<invalid>,1662
1622baa6c055f3,14,1,sounds/type_40,570,205,OK,type,<invalid>,1095
1622baa6c055f3,15,1,sounds/type_60,568,80,OK,type,<invalid>,1006
1622baa6c055f3,16,1,sounds/type_0,569,110,OK,dype,<invalid>,858
1622baa6c055f3,17,1,sounds/type_0,569,260,OK,dype,<invalid>,1008
1622baa6c055f3,18,1,sounds/type_20,569,90,unallowed_response,dype,<invalid>,1121
1622baa6c055f3,19,1,sounds/type_0,569,70,incorrect_response,type,<invalid>,1042
1622baa6c055f3,20,1,sounds/type_40,570,85,OK,dype,<invalid>,927
1622baa6c055f3,21,1,sounds/type_40,570,100,OK,type,<invalid>,1158
1622baa6c055f3,22,1,sounds/type_20,569,100,OK,dype,<invalid>,939
1622baa6c055f3,23,1,sounds/type_40,570,80,OK,dype,<invalid>,1118
1622baa6c055f3,24,1,sounds/type_80,569,75,OK,type,<invalid>,982
1622baa6c055f3,25,1,sounds/type_80,569,215,OK,type,<invalid>,873
1622baa6c055f3,26,1,sounds/type_80,569,115,OK,type,<invalid>,1021
1622baa6c055f3,27,1,sounds/type_80,569,100,OK,type,<invalid>,974
1622baa6c055f3,28,1,sounds/type_40,570,75,OK,type,<invalid>,1117
1622baa6c055f3,29,1,sounds/type_80,569,90,OK,type,<invalid>,1312
1622baa6c055f3,30,1,sounds/type_0,569,75,incorrect_response,type,<invalid>,1087
1622baa6c055f3,31,1,sounds/type_80,569,95,OK,type,<invalid>,1118
1622baa6c055f3,32,1,sounds/type_60,568,80,OK,type,<invalid>,1223
1622baa6c055f3,33,1,sounds/type_40,570,80,OK,dype,<invalid>,973
1622baa6c055f3,34,1,sounds/type_40,570,70,OK,dype,<invalid>,1199
1622baa6c055f3,35,1,sounds/type_60,568,70,OK,type,<invalid>,1017
1622baa6c055f3,36,1,sounds/type_20,569,90,OK,dype,<invalid>,896
1622baa6c055f3,37,1,sounds/type_60,568,70,OK,type,<invalid>,828
1622baa6c055f3,38,1,sounds/type_20,569,105,OK,dype,<invalid>,1226
1622baa6c055f3,39,1,sounds/type_20,569,85,OK,dype,<invalid>,1047
1622baa6c055f3,40,1,sounds/type_20,569,75,OK,dype,<invalid>,886
1622baa6c055f3,41,1,sounds/type_20,569,75,OK,dype,<invalid>,921
1622baa6c055f3,42,1,sounds/type_20,569,135,OK,dype,<invalid>,945
1622baa6c055f3,43,1,sounds/type_60,568,70,OK,type,<invalid>,944
1622baa6c055f3,44,1,sounds/type_0,569,85,OK,dype,<invalid>,905
1622baa6c055f3,45,1,sounds/type_40,570,70,OK,dype,<invalid>,1174
1622baa6c055f3,46,1,sounds/type_80,569,70,OK,type,<invalid>,994
1622baa6c055f3,47,1,sounds/type_80,569,75,OK,type,<invalid>,968
1622baa6c055f3,48,1,sounds/type_0,569,60,OK,dype,<invalid>,833
1622baa6c055f3,49,1,sounds/type_40,570,65,OK,dype,<invalid>,1168
1622baa6c055f3,0,1,sounds/dice_0,630,55,OK,dice,<invalid>,1629
1622baa6c055f3,1,1,sounds/dice_20,630,75,OK,dice,<invalid>,895
1622baa6c055f3,2,1,sounds/dice_40,630,120,OK,dice,<invalid>,1097
1622baa6c055f3,3,1,sounds/dice_20,630,95,OK,dice,<invalid>,911
1622baa6c055f3,4,1,sounds/dice_40,630,90,OK,dice,<invalid>,1285
1622baa6c055f3,5,1,sounds/dice_20,630,75,OK,dice,<invalid>,834
1622baa6c055f3,6,1,sounds/dice_80,630,90,OK,tice,<invalid>,1039
1622baa6c055f3,7,1,sounds/dice_80,630,65,OK,tice,<invalid>,894
1622baa6c055f3,8,1,sounds/dice_0,630,80,OK,dice,<invalid>,915
1622baa6c055f3,9,1,sounds/dice_80,630,70,OK,tice,<invalid>,981
1622baa6c055f3,10,1,sounds/dice_40,630,70,OK,tice,<invalid>,1369
1622baa6c055f3,11,1,sounds/dice_0,630,75,OK,dice,<invalid>,774
1622baa6c055f3,12,1,sounds/dice_0,630,85,OK,dice,<invalid>,1023
1622baa6c055f3,13,1,sounds/dice_80,630,85,OK,tice,<invalid>,1393
1622baa6c055f3,14,1,sounds/dice_60,630,75,OK,tice,<invalid>,1260
1622baa6c055f3,15,1,sounds/dice_80,630,95,OK,tice,<invalid>,905
1622baa6c055f3,16,1,sounds/dice_60,630,210,OK,tice,<invalid>,1017
1622baa6c055f3,17,1,sounds/dice_80,630,140,OK,tice,<invalid>,913
1622baa6c055f3,18,1,sounds/dice_60,630,160,OK,tice,<invalid>,991
1622baa6c055f3,19,1,sounds/dice_0,630,125,OK,dice,<invalid>,865
1622baa6c055f3,20,1,sounds/dice_20,630,195,OK,dice,<invalid>,849
1622baa6c055f3,21,1,sounds/dice_80,630,285,OK,tice,<invalid>,852
1622baa6c055f3,22,1,sounds/dice_60,630,225,OK,tice,<invalid>,986
1622baa6c055f3,23,1,sounds/dice_0,630,140,OK,dice,<invalid>,776
1622baa6c055f3,24,1,sounds/dice_40,630,305,OK,dice,<invalid>,1023
1622baa6c055f3,25,1,sounds/dice_20,630,155,OK,dice,<invalid>,896
1622baa6c055f3,26,1,sounds/dice_80,630,165,OK,tice,<invalid>,849
1622baa6c055f3,27,1,sounds/dice_20,630,285,OK,dice,<invalid>,947
1622baa6c055f3,28,1,sounds/dice_20,630,160,OK,dice,<invalid>,2180
1622baa6c055f3,29,1,sounds/dice_80,630,85,OK,tice,<invalid>,1223
1622baa6c055f3,30,1,sounds/dice_20,630,155,OK,dice,<invalid>,1111
1622baa6c055f3,31,1,sounds/dice_0,630,115,OK,dice,<invalid>,1579
1622baa6c055f3,32,1,sounds/dice_40,630,180,OK,tice,<invalid>,1475
1622baa6c055f3,33,1,sounds/dice_20,630,65,OK,dice,<invalid>,1066
1622baa6c055f3,34,1,sounds/dice_60,630,95,OK,tice,<invalid>,1355
1622baa6c055f3,35,1,sounds/dice_60,630,250,OK,tice,<invalid>,1249
1622baa6c055f3,36,1,sounds/dice_0,630,90,OK,dice,<invalid>,890
1622baa6c055f3,37,1,sounds/dice_20,630,95,OK,dice,<invalid>,1621
1622baa6c055f3,38,1,sounds/dice_60,630,95,OK,tice,<invalid>,1120
1622baa6c055f3,39,1,sounds/dice_40,630,300,OK,tice,<invalid>,1655
1622baa6c055f3,40,1,sounds/dice_40,630,185,OK,dice,<invalid>,1940
1622baa6c055f3,41,1,sounds/dice_60,630,80,OK,tice,<invalid>,955
1622baa6c055f3,42,1,sounds/dice_0,630,80,OK,dice,<invalid>,1191
1622baa6c055f3,43,1,sounds/dice_40,630,80,OK,dice,<invalid>,1746
1622baa6c055f3,44,1,sounds/dice_40,630,85,OK,dice,<invalid>,1122
1622baa6c055f3,45,1,sounds/dice_80,630,75,OK,tice,<invalid>,976
1622baa6c055f3,46,1,sounds/dice_60,630,80,OK,tice,<invalid>,1129
1622baa6c055f3,47,1,sounds/dice_0,630,325,OK,dice,<invalid>,807
1622baa6c055f3,48,1,sounds/dice_60,630,265,OK,tice,<invalid>,886
1622baa6c055f3,49,1,sounds/dice_40,630,240,OK,dice,<invalid>,960
3622ca6065dbe6,0,3,sounds/type_80,569,360,OK,type,<invalid>,1783
3622ca6065dbe6,1,3,sounds/type_80,569,0,OK,type,<invalid>,1979
3622ca6065dbe6,2,3,sounds/type_60,568,125,OK,type,<invalid>,1664
3622ca6065dbe6,3,3,sounds/type_20,569,125,OK,dype,<invalid>,1253
3622ca6065dbe6,4,3,sounds/type_0,569,135,OK,dype,<invalid>,896
3622ca6065dbe6,5,3,sounds/type_80,569,0,OK,type,<invalid>,1069
3622ca6065dbe6,6,3,sounds/type_0,569,0,OK,dype,<invalid>,955
3622ca6065dbe6,7,3,sounds/type_60,568,0,OK,type,<invalid>,796
3622ca6065dbe6,8,3,sounds/type_80,569,0,OK,type,<invalid>,1052
3622ca6065dbe6,9,3,sounds/type_40,570,130,OK,type,<invalid>,1041
3622ca6065dbe6,10,3,sounds/type_0,569,0,OK,dype,<invalid>,997
3622ca6065dbe6,11,3,sounds/type_80,569,0,OK,type,<invalid>,722
3622ca6065dbe6,12,3,sounds/type_60,568,0,OK,type,<invalid>,955
3622ca6065dbe6,13,3,sounds/type_20,569,0,OK,dype,<invalid>,986
3622ca6065dbe6,14,3,sounds/type_20,569,0,OK,dype,<invalid>,796
3622ca6065dbe6,15,3,sounds/type_20,569,0,OK,dype,<invalid>,830
3622ca6065dbe6,16,3,sounds/type_20,569,0,OK,dype,<invalid>,999
3622ca6065dbe6,17,3,sounds/type_20,569,0,OK,type,<invalid>,854
3622ca6065dbe6,18,3,sounds/type_0,569,0,OK,dype,<invalid>,819
3622ca6065dbe6,19,3,sounds/type_40,570,0,OK,type,<invalid>,789
3622ca6065dbe6,20,3,sounds/type_0,569,0,OK,dype,<invalid>,725
3622ca6065dbe6,21,3,sounds/type_40,570,0,OK,type,<invalid>,779
3622ca6065dbe6,22,3,sounds/type_80,569,0,OK,type,<invalid>,707
3622ca6065dbe6,23,3,sounds/type_40,570,0,OK,type,<invalid>,795
3622ca6065dbe6,24,3,sounds/type_20,569,0,OK,dype,<invalid>,860
3622ca6065dbe6,25,3,sounds/type_0,569,0,OK,dype,<invalid>,939
3622ca6065dbe6,26,3,sounds/type_80,569,0,OK,type,<invalid>,867
3622ca6065dbe6,27,3,sounds/type_20,569,0,OK,dype,<invalid>,988
3622ca6065dbe6,28,3,sounds/type_0,569,0,OK,dype,<invalid>,796
3622ca6065dbe6,29,3,sounds/type_0,569,0,OK,dype,<invalid>,906
3622ca6065dbe6,30,3,sounds/type_60,568,0,OK,type,<invalid>,925
3622ca6065dbe6,31,3,sounds/type_60,568,0,OK,type,<invalid>,860
3622ca6065dbe6,32,3,sounds/type_0,569,0,OK,dype,<invalid>,1047
3622ca6065dbe6,33,3,sounds/type_40,570,5,OK,type,<invalid>,824
3622ca6065dbe6,34,3,sounds/type_80,569,0,OK,type,<invalid>,832
3622ca6065dbe6,35,3,sounds/type_80,569,0,OK,type,<invalid>,904
3622ca6065dbe6,36,3,sounds/type_60,568,0,OK,type,<invalid>,866
3622ca6065dbe6,37,3,sounds/type_40,570,0,OK,type,<invalid>,752
3622ca6065dbe6,38,3,sounds/type_20,569,0,OK,dype,<invalid>,743
3622ca6065dbe6,39,3,sounds/type_80,569,0,OK,type,<invalid>,781
3622ca6065dbe6,40,3,sounds/type_40,570,0,OK,type,<invalid>,733
3622ca6065dbe6,41,3,sounds/type_60,568,0,OK,type,<invalid>,802
3622ca6065dbe6,42,3,sounds/type_0,569,0,OK,dype,<invalid>,785
3622ca6065dbe6,43,3,sounds/type_60,568,0,OK,type,<invalid>,775
3622ca6065dbe6,44,3,sounds/type_20,569,0,OK,dype,<invalid>,845
3622ca6065dbe6,45,3,sounds/type_40,570,0,OK,type,<invalid>,865
3622ca6065dbe6,46,3,sounds/type_60,568,0,OK,type,<invalid>,873
3622ca6065dbe6,47,3,sounds/type_40,570,0,OK,type,<invalid>,835
3622ca6065dbe6,48,3,sounds/type_60,568,0,OK,type,<invalid>,803
3622ca6065dbe6,49,3,sounds/type_40,570,0,OK,type,<invalid>,835
3622ca6065dbe6,0,3,sounds/dice_0,630,190,OK,dice,<invalid>,882
3622ca6065dbe6,1,3,sounds/dice_40,630,135,OK,tice,<invalid>,788
3622ca6065dbe6,2,3,sounds/dice_40,630,0,OK,tice,<invalid>,942
3622ca6065dbe6,3,3,sounds/dice_80,630,245,OK,tice,<invalid>,715
3622ca6065dbe6,4,3,sounds/dice_40,630,0,OK,tice,<invalid>,894
3622ca6065dbe6,5,3,sounds/dice_20,630,135,OK,dice,<invalid>,810
3622ca6065dbe6,6,3,sounds/dice_20,630,0,OK,dice,<invalid>,978
3622ca6065dbe6,7,3,sounds/dice_60,630,140,OK,tice,<invalid>,730
3622ca6065dbe6,8,3,sounds/dice_0,630,0,OK,dice,<invalid>,796
3622ca6065dbe6,9,3,sounds/dice_80,630,0,OK,tice,<invalid>,767
3622ca6065dbe6,10,3,sounds/dice_20,630,0,OK,dice,<invalid>,789
3622ca6065dbe6,11,3,sounds/dice_60,630,0,OK,tice,<invalid>,810
3622ca6065dbe6,12,3,sounds/dice_0,630,0,OK,dice,<invalid>,809
3622ca6065dbe6,13,3,sounds/dice_0,630,0,OK,dice,<invalid>,934
3622ca6065dbe6,14,3,sounds/dice_80,630,0,OK,tice,<invalid>,830
3622ca6065dbe6,15,3,sounds/dice_60,630,0,OK,tice,<invalid>,862
3622ca6065dbe6,16,3,sounds/dice_60,630,0,OK,tice,<invalid>,1051
3622ca6065dbe6,17,3,sounds/dice_20,630,0,OK,dice,<invalid>,905
3622ca6065dbe6,18,3,sounds/dice_20,630,0,OK,dice,<invalid>,982
3622ca6065dbe6,19,3,sounds/dice_40,630,0,OK,tice,<invalid>,969
3622ca6065dbe6,20,3,sounds/dice_0,630,0,OK,dice,<invalid>,704
3622ca6065dbe6,21,3,sounds/dice_20,630,0,OK,dice,<invalid>,861
3622ca6065dbe6,22,3,sounds/dice_0,630,0,OK,dice,<invalid>,703
3622ca6065dbe6,23,3,sounds/dice_40,630,0,OK,tice,<invalid>,795
3622ca6065dbe6,24,3,sounds/dice_60,630,0,OK,tice,<invalid>,663
3622ca6065dbe6,25,3,sounds/dice_60,630,0,OK,tice,<invalid>,557
3622ca6065dbe6,26,3,sounds/dice_80,630,0,OK,tice,<invalid>,654
3622ca6065dbe6,27,3,sounds/dice_20,630,0,OK,dice,<invalid>,811
3622ca6065dbe6,28,3,sounds/dice_40,630,0,OK,tice,<invalid>,896
3622ca6065dbe6,29,3,sounds/dice_0,630,0,OK,dice,<invalid>,834
3622ca6065dbe6,30,3,sounds/dice_60,630,0,OK,tice,<invalid>,816
3622ca6065dbe6,31,3,sounds/dice_40,630,0,OK,tice,<invalid>,684
3622ca6065dbe6,32,3,sounds/dice_0,630,0,OK,dice,<invalid>,577
3622ca6065dbe6,33,3,sounds/dice_0,630,0,OK,dice,<invalid>,539
3622ca6065dbe6,34,3,sounds/dice_60,630,0,OK,tice,<invalid>,657
3622ca6065dbe6,35,3,sounds/dice_20,630,0,OK,dice,<invalid>,552
3622ca6065dbe6,36,3,sounds/dice_0,630,0,OK,dice,<invalid>,1121
3622ca6065dbe6,37,3,sounds/dice_40,630,0,OK,tice,<invalid>,1014
3622ca6065dbe6,38,3,sounds/dice_20,630,0,OK,dice,<invalid>,770
3622ca6065dbe6,39,3,sounds/dice_40,630,0,OK,tice,<invalid>,976
3622ca6065dbe6,40,3,sounds/dice_80,630,5,OK,tice,<invalid>,615
3622ca6065dbe6,41,3,sounds/dice_40,630,0,OK,tice,<invalid>,645
3622ca6065dbe6,42,3,sounds/dice_80,630,0,OK,tice,<invalid>,824
3622ca6065dbe6,43,3,sounds/dice_80,630,0,OK,tice,<invalid>,648
3622ca6065dbe6,44,3,sounds/dice_80,630,0,OK,tice,<invalid>,632
3622ca6065dbe6,45,3,sounds/dice_20,630,0,OK,dice,<invalid>,690
3622ca6065dbe6,46,3,sounds/dice_80,630,0,OK,tice,<invalid>,722
3622ca6065dbe6,47,3,sounds/dice_60,630,0,OK,tice,<invalid>,600
3622ca6065dbe6,48,3,sounds/dice_80,630,0,OK,tice,<invalid>,665
3622ca6065dbe6,49,3,sounds/dice_60,630,0,OK,tice,<invalid>,801
4622ca7584dfc6,0,4,sounds/type_60,568,55,slow_response,dype,<invalid>,3065
4622ca7584dfc6,1,4,sounds/type_40,570,50,OK,type,<invalid>,1249
4622ca7584dfc6,2,4,sounds/type_80,569,50,OK,type,<invalid>,620
4622ca7584dfc6,3,4,sounds/type_80,569,0,OK,type,<invalid>,677
4622ca7584dfc6,4,4,sounds/type_40,570,0,OK,type,<invalid>,848
4622ca7584dfc6,5,4,sounds/type_60,568,0,OK,type,<invalid>,635
4622ca7584dfc6,6,4,sounds/type_40,570,0,OK,dype,<invalid>,914
4622ca7584dfc6,7,4,sounds/type_0,569,50,OK,dype,<invalid>,560
4622ca7584dfc6,8,4,sounds/type_0,569,0,OK,dype,<invalid>,434
4622ca7584dfc6,9,4,sounds/type_0,569,0,OK,dype,<invalid>,463
4622ca7584dfc6,10,4,sounds/type_0,569,0,OK,dype,<invalid>,476
4622ca7584dfc6,11,4,sounds/type_20,569,55,OK,type,<invalid>,662
4622ca7584dfc6,12,4,sounds/type_80,569,0,OK,type,<invalid>,590
4622ca7584dfc6,13,4,sounds/type_0,569,0,OK,dype,<invalid>,463
4622ca7584dfc6,14,4,sounds/type_40,570,0,OK,type,<invalid>,483
4622ca7584dfc6,15,4,sounds/type_80,569,0,OK,type,<invalid>,579
4622ca7584dfc6,16,4,sounds/type_80,569,0,OK,type,<invalid>,529
4622ca7584dfc6,17,4,sounds/type_80,569,0,OK,type,<invalid>,521
4622ca77d3bb11,0,4,sounds/type_60,568,125,slow_response,type,<invalid>,3175
4622ca7584dfc6,18,4,sounds/type_40,570,0,OK,type,<invalid>,643
4622ca77d3bb11,1,4,sounds/type_0,569,70,OK,dype,<invalid>,1341
4622ca7584dfc6,19,4,sounds/type_20,569,0,OK,type,<invalid>,908
4622ca77d3bb11,2,4,sounds/type_20,569,40,OK,dype,<invalid>,909
4622ca7584dfc6,20,4,sounds/type_20,569,0,OK,dype,<invalid>,1014
4622ca77d3bb11,3,4,sounds/type_0,569,0,OK,dype,<invalid>,808
4622ca7584dfc6,21,4,sounds/type_60,568,0,OK,type,<invalid>,672
4622ca77d3bb11,4,4,sounds/type_80,569,40,OK,type,<invalid>,740
4622ca7584dfc6,22,4,sounds/type_0,569,0,OK,dype,<invalid>,502
4622ca77d3bb11,5,4,sounds/type_80,569,0,OK,type,<invalid>,587
4622ca7584dfc6,23,4,sounds/type_20,569,0,OK,type,<invalid>,634
4622ca77d3bb11,6,4,sounds/type_40,570,45,OK,type,<invalid>,907
4622ca7584dfc6,24,4,sounds/type_60,568,0,OK,type,<invalid>,586
4622ca77d3bb11,7,4,sounds/type_20,569,10,OK,dype,<invalid>,580
4622ca7584dfc6,25,4,sounds/type_60,568,0,OK,type,<invalid>,525
4622ca7584dfc6,26,4,sounds/type_60,568,0,OK,type,<invalid>,487
4622ca77d3bb11,8,4,sounds/type_0,569,10,OK,dype,<invalid>,825
4622ca7584dfc6,27,4,sounds/type_40,570,0,OK,type,<invalid>,480
4622ca77d3bb11,9,4,sounds/type_40,570,0,OK,type,<invalid>,646
4622ca7584dfc6,28,4,sounds/type_60,568,0,OK,type,<invalid>,519
4622ca77d3bb11,10,4,sounds/type_80,569,0,OK,type,<invalid>,546
4622ca7584dfc6,29,4,sounds/type_60,568,0,OK,type,<invalid>,545
4622ca77d3bb11,11,4,sounds/type_40,570,0,OK,type,<invalid>,741
4622ca7584dfc6,30,4,sounds/type_20,569,0,OK,type,<invalid>,698
4622ca77d3bb11,12,4,sounds/type_80,569,0,OK,type,<invalid>,575
4622ca7584dfc6,31,4,sounds/type_80,569,0,OK,type,<invalid>,718
4622ca77d3bb11,13,4,sounds/type_60,568,5,OK,type,<invalid>,537
4622ca7584dfc6,32,4,sounds/type_40,570,0,OK,type,<invalid>,700
4622ca77d3bb11,14,4,sounds/type_0,569,0,OK,dype,<invalid>,543
4622ca7584dfc6,33,4,sounds/type_80,569,0,OK,type,<invalid>,683
4622ca77d3bb11,15,4,sounds/type_0,569,0,OK,dype,<invalid>,579
4622ca7584dfc6,34,4,sounds/type_60,568,0,OK,type,<invalid>,709
4622ca77d3bb11,16,4,sounds/type_60,568,0,OK,type,<invalid>,630
4622ca7584dfc6,35,4,sounds/type_20,569,0,OK,dype,<invalid>,800
4622ca77d3bb11,17,4,sounds/type_20,569,0,OK,dype,<invalid>,942
4622ca7584dfc6,36,4,sounds/type_40,570,0,OK,type,<invalid>,765
4622ca77d3bb11,18,4,sounds/type_40,570,0,OK,type,<invalid>,633
4622ca7584dfc6,37,4,sounds/type_40,570,0,OK,type,<invalid>,663
4622ca77d3bb11,19,4,sounds/type_80,569,0,OK,type,<invalid>,585
4622ca7584dfc6,38,4,sounds/type_0,569,0,OK,dype,<invalid>,512
4622ca77d3bb11,20,4,sounds/type_60,568,0,OK,type,<invalid>,579
4622ca7584dfc6,39,4,sounds/type_60,568,0,OK,type,<invalid>,591
4622ca77d3bb11,21,4,sounds/type_60,568,0,OK,type,<invalid>,655
4622ca7584dfc6,40,4,sounds/type_40,570,0,OK,type,<invalid>,535
4622ca77d3bb11,22,4,sounds/type_0,569,0,OK,dype,<invalid>,624
4622ca7584dfc6,41,4,sounds/type_20,569,0,OK,dype,<invalid>,686
4622ca77d3bb11,23,4,sounds/type_20,569,0,OK,dype,<invalid>,556
4622ca7584dfc6,42,4,sounds/type_80,569,0,OK,type,<invalid>,615
4622ca77d3bb11,24,4,sounds/type_20,569,0,OK,dype,<invalid>,502
4622ca7584dfc6,43,4,sounds/type_20,569,0,OK,dype,<invalid>,628
4622ca77d3bb11,25,4,sounds/type_20,569,0,OK,dype,<invalid>,543
4622ca77d3bb11,26,4,sounds/type_20,569,0,OK,dype,<invalid>,610
4622ca7584dfc6,44,4,sounds/type_20,569,0,OK,dype,<invalid>,810
4622ca77d3bb11,27,4,sounds/type_0,569,0,OK,dype,<invalid>,481
4622ca7584dfc6,45,4,sounds/type_80,569,0,OK,type,<invalid>,572
4622ca77d3bb11,28,4,sounds/type_20,569,0,OK,dype,<invalid>,542
4622ca7584dfc6,46,4,sounds/type_0,569,0,OK,dype,<invalid>,605
4622ca77d3bb11,29,4,sounds/type_0,569,0,OK,dype,<invalid>,513
4622ca7584dfc6,47,4,sounds/type_0,569,0,OK,dype,<invalid>,541
4622ca77d3bb11,30,4,sounds/type_20,569,0,OK,dype,<invalid>,762
4622ca7584dfc6,48,4,sounds/type_20,569,0,OK,type,<invalid>,615
4622ca7584dfc6,49,4,sounds/type_0,569,0,OK,dype,<invalid>,567
4622ca77d3bb11,31,4,sounds/type_40,570,0,OK,type,<invalid>,759
4622ca77d3bb11,32,4,sounds/type_40,570,0,OK,type,<invalid>,696
4622ca77d3bb11,33,4,sounds/type_40,570,0,OK,type,<invalid>,624
4622ca7e178487,0,4,sounds/type_40,570,565,slow_response,type,<invalid>,3926
4622ca77d3bb11,34,4,sounds/type_80,569,5,OK,type,<invalid>,585
4622ca77d3bb11,35,4,sounds/type_20,569,0,OK,dype,<invalid>,691
4622ca7e178487,1,4,sounds/type_0,569,665,slow_response,dype,<invalid>,2697
4622ca77d3bb11,36,4,sounds/type_80,569,0,OK,type,<invalid>,610
4622ca7e178487,2,4,sounds/type_60,568,670,OK,dype,<invalid>,886
4622ca77d3bb11,37,4,sounds/type_40,570,0,OK,type,<invalid>,1051
4622ca7e178487,3,4,sounds/type_80,569,700,incorrect_response,dype,<invalid>,675
4622ca77d3bb11,38,4,sounds/type_60,568,0,OK,type,<invalid>,634
4622ca7e178487,4,4,sounds/type_20,569,640,OK,type,<invalid>,500
4622ca77d3bb11,39,4,sounds/type_60,568,0,OK,type,<invalid>,653
4622ca7584dfc6,0,4,sounds/dice_40,630,60,OK,dice,<invalid>,2180
4622ca7e178487,5,4,sounds/type_80,569,5,incorrect_response,dype,<invalid>,607
4622ca77d3bb11,40,4,sounds/type_80,569,0,OK,type,<invalid>,578
4622ca7584dfc6,1,4,sounds/dice_80,630,55,incorrect_response,dice,<invalid>,1387
4622ca77d3bb11,41,4,sounds/type_0,569,0,OK,dype,<invalid>,503
4622ca7e178487,6,4,sounds/type_40,570,5,OK,type,<invalid>,666
4622ca7e178487,7,4,sounds/type_80,569,10,OK,type,<invalid>,696
4622ca7584dfc6,2,4,sounds/dice_20,630,55,OK,dice,<invalid>,993
4622ca77d3bb11,42,4,sounds/type_60,568,0,OK,type,<invalid>,663
4622ca7584dfc6,3,4,sounds/dice_40,630,0,OK,tice,<invalid>,545
4622ca7e178487,8,4,sounds/type_40,570,10,OK,type,<invalid>,607
4622ca77d3bb11,43,4,sounds/type_80,569,0,OK,type,<invalid>,557
4622ca7e178487,9,4,sounds/type_0,569,5,incorrect_response,type,<invalid>,471
4622ca7584dfc6,4,4,sounds/dice_20,630,0,OK,dice,<invalid>,574
4622ca77d3bb11,44,4,sounds/type_40,570,0,OK,type,<invalid>,744
4622ca7584dfc6,5,4,sounds/dice_40,630,0,OK,tice,<invalid>,513
4622ca7e178487,10,4,sounds/type_60,568,10,OK,dype,<invalid>,617
4622ca77d3bb11,45,4,sounds/type_0,569,0,OK,dype,<invalid>,475
4622ca7e178487,11,4,sounds/type_40,570,5,OK,type,<invalid>,591
4622ca7584dfc6,6,4,sounds/dice_60,630,55,OK,tice,<invalid>,781
4622ca77d3bb11,46,4,sounds/type_60,568,0,OK,type,<invalid>,619
4622ca7e178487,12,4,sounds/type_80,569,10,incorrect_response,dype,<invalid>,721
4622ca77d3bb11,47,4,sounds/type_80,569,0,OK,type,<invalid>,635
4622ca7584dfc6,7,4,sounds/dice_0,630,55,OK,dice,<invalid>,475
4622ca7584dfc6,8,4,sounds/dice_80,630,0,OK,tice,<invalid>,587
4622ca77d3bb11,48,4,sounds/type_40,570,0,OK,type,<invalid>,1006
4622ca7e178487,13,4,sounds/type_60,568,10,OK,type,<invalid>,621
4622ca7584dfc6,9,4,sounds/dice_20,630,0,OK,dice,<invalid>,581
4622ca7e178487,14,4,sounds/type_20,569,20,OK,type,<invalid>,562
4622ca77d3bb11,49,4,sounds/type_60,568,0,OK,type,<invalid>,650
4622ca7584dfc6,10,4,sounds/dice_80,630,0,OK,tice,<invalid>,443
4622ca7e178487,15,4,sounds/type_20,569,10,OK,type,<invalid>,713
4622ca7584dfc6,11,4,sounds/dice_60,630,0,OK,tice,<invalid>,537
4622ca7e178487,16,4,sounds/type_40,570,10,OK,type,<invalid>,430
4622ca7584dfc6,12,4,sounds/dice_0,630,0,OK,dice,<invalid>,560
4622ca7e178487,17,4,sounds/type_20,569,5,OK,type,<invalid>,423
4622ca7584dfc6,13,4,sounds/dice_80,630,0,OK,tice,<invalid>,571
4622ca7e178487,18,4,sounds/type_20,569,5,OK,type,<invalid>,705
4622ca7584dfc6,14,4,sounds/dice_60,630,0,OK,tice,<invalid>,667
4622ca7e178487,19,4,sounds/type_60,568,5,OK,dype,<invalid>,479
4622ca7584dfc6,15,4,sounds/dice_80,630,0,OK,tice,<invalid>,652
4622ca7e178487,20,4,sounds/type_60,568,10,OK,type,<invalid>,712
4622ca7584dfc6,16,4,sounds/dice_20,630,0,OK,dice,<invalid>,579
4622ca7e178487,21,4,sounds/type_80,569,5,incorrect_response,dype,<invalid>,680
4622ca7584dfc6,17,4,sounds/dice_80,630,0,OK,tice,<invalid>,594
4622ca7e178487,22,4,sounds/type_0,569,15,incorrect_response,type,<invalid>,487
4622ca77d3bb11,0,4,sounds/dice_60,630,155,OK,tice,<invalid>,1691
4622ca7584dfc6,18,4,sounds/dice_0,630,0,OK,dice,<invalid>,504
4622ca7e178487,23,4,sounds/type_40,570,5,OK,type,<invalid>,496
4622ca77d3bb11,1,4,sounds/dice_0,630,45,OK,dice,<invalid>,555
4622ca7584dfc6,19,4,sounds/dice_20,630,0,OK,dice,<invalid>,840
4622ca7e178487,24,4,sounds/type_0,569,5,OK,dype,<invalid>,708
4622ca77d3bb11,2,4,sounds/dice_40,630,45,OK,tice,<invalid>,761
4622ca7584dfc6,20,4,sounds/dice_40,630,0,OK,tice,<invalid>,613
4622ca77d3bb11,3,4,sounds/dice_80,630,45,OK,tice,<invalid>,586
4622ca7e178487,25,4,sounds/type_60,568,5,OK,type,<invalid>,701
4622ca7584dfc6,21,4,sounds/dice_20,630,0,OK,dice,<invalid>,651
4622ca7e178487,26,4,sounds/type_20,569,10,OK,dype,<invalid>,709
4622ca77d3bb11,4,4,sounds/dice_20,630,75,OK,dice,<invalid>,609
4622ca7584dfc6,22,4,sounds/dice_60,630,0,OK,tice,<invalid>,522
4622ca7e178487,27,4,sounds/type_0,569,5,incorrect_response,type,<invalid>,925
4622ca77d3bb11,5,4,sounds/dice_40,630,0,OK,tice,<invalid>,773
4622ca7584dfc6,23,4,sounds/dice_20,630,0,OK,dice,<invalid>,705
4622ca77d3bb11,6,4,sounds/dice_60,630,0,OK,tice,<invalid>,607
4622ca7e178487,28,4,sounds/type_40,570,20,OK,dype,<invalid>,700
4622ca7584dfc6,24,4,sounds/dice_0,630,0,OK,dice,<invalid>,522
4622ca7e178487,29,4,sounds/type_40,570,10,OK,dype,<invalid>,565
4622ca77d3bb11,7,4,sounds/dice_20,630,0,OK,dice,<invalid>,588
4622ca7584dfc6,25,4,sounds/dice_80,630,0,OK,tice,<invalid>,484
4622ca7e178487,30,4,sounds/type_60,568,10,OK,type,<invalid>,760
4622ca77d3bb11,8,4,sounds/dice_80,630,0,OK,tice,<invalid>,793
4622ca7584dfc6,26,4,sounds/dice_40,630,0,OK,dice,<invalid>,906
4622ca7e178487,31,4,sounds/type_60,568,5,OK,dype,<invalid>,809
4622ca77d3bb11,9,4,sounds/dice_40,630,0,OK,tice,<invalid>,547
4622ca7584dfc6,27,4,sounds/dice_0,630,0,OK,dice,<invalid>,590
4622ca77d3bb11,10,4,sounds/dice_80,630,0,OK,tice,<invalid>,496
4622ca7e178487,32,4,sounds/type_80,569,15,incorrect_response,dype,<invalid>,706
4622ca7584dfc6,28,4,sounds/dice_0,630,0,OK,dice,<invalid>,563
4622ca7e178487,33,4,sounds/type_20,569,5,OK,type,<invalid>,702
4622ca77d3bb11,11,4,sounds/dice_40,630,0,OK,tice,<invalid>,728
4622ca7584dfc6,29,4,sounds/dice_40,630,0,OK,tice,<invalid>,564
4622ca7e178487,34,4,sounds/type_20,569,10,OK,type,<invalid>,817
4622ca77d3bb11,12,4,sounds/dice_60,630,0,OK,tice,<invalid>,519
4622ca7584dfc6,30,4,sounds/dice_20,630,0,OK,dice,<invalid>,656
4622ca7e178487,35,4,sounds/type_0,569,5,incorrect_response,type,<invalid>,686
4622ca77d3bb11,13,4,sounds/dice_80,630,0,OK,tice,<invalid>,567
4622ca7584dfc6,31,4,sounds/dice_0,630,0,OK,dice,<invalid>,498
4622ca7e178487,36,4,sounds/type_20,569,5,OK,dype,<invalid>,499
4622ca77d3bb11,14,4,sounds/dice_20,630,0,OK,dice,<invalid>,617
4622ca7584dfc6,32,4,sounds/dice_60,630,0,OK,tice,<invalid>,617
4622ca7e178487,37,4,sounds/type_0,569,15,OK,dype,<invalid>,663
4622ca77d3bb11,15,4,sounds/dice_20,630,0,OK,dice,<invalid>,621
4622ca7584dfc6,33,4,sounds/dice_0,630,0,OK,dice,<invalid>,507
4622ca7e178487,38,4,sounds/type_0,569,5,OK,dype,<invalid>,706
4622ca77d3bb11,16,4,sounds/dice_40,630,0,OK,tice,<invalid>,721
4622ca7584dfc6,34,4,sounds/dice_60,630,0,OK,tice,<invalid>,492
4622ca77d3bb11,17,4,sounds/dice_20,630,0,OK,dice,<invalid>,497
4622ca7584dfc6,35,4,sounds/dice_80,630,0,OK,tice,<invalid>,608
4622ca7e178487,39,4,sounds/type_80,569,10,incorrect_response,dype,<invalid>,717
4622ca77d3bb11,18,4,sounds/dice_80,630,0,OK,tice,<invalid>,537
4622ca7e178487,40,4,sounds/type_80,569,5,OK,type,<invalid>,477
4622ca7584dfc6,36,4,sounds/dice_40,630,0,OK,tice,<invalid>,529
4622ca77d3bb11,19,4,sounds/dice_0,630,0,OK,dice,<invalid>,572
4622ca7e178487,41,4,sounds/type_0,569,10,incorrect_response,type,<invalid>,845
4622ca7584dfc6,37,4,sounds/dice_20,630,0,OK,dice,<invalid>,647
4622ca7e178487,42,4,sounds/type_40,570,15,OK,dype,<invalid>,392
4622ca7584dfc6,38,4,sounds/dice_40,630,0,OK,tice,<invalid>,564
4622ca77d3bb11,20,4,sounds/dice_60,630,0,OK,tice,<invalid>,608
4622ca77d3bb11,21,4,sounds/dice_60,630,0,OK,tice,<invalid>,563
4622ca7584dfc6,39,4,sounds/dice_60,630,0,OK,tice,<invalid>,632
4622ca7e178487,43,4,sounds/type_20,569,10,OK,type,<invalid>,692
4622ca77d3bb11,22,4,sounds/dice_0,630,0,OK,dice,<invalid>,510
4622ca7e178487,44,4,sounds/type_60,568,20,OK,dype,<invalid>,763
4622ca7584dfc6,40,4,sounds/dice_60,630,0,OK,tice,<invalid>,559
4622ca77d3bb11,23,4,sounds/dice_40,630,0,OK,tice,<invalid>,531
4622ca7e178487,45,4,sounds/type_80,569,5,OK,type,<invalid>,872
4622ca7584dfc6,41,4,sounds/dice_80,630,0,OK,tice,<invalid>,558
4622ca77d3bb11,24,4,sounds/dice_80,630,0,OK,tice,<invalid>,532
4622ca7584dfc6,42,4,sounds/dice_0,630,0,OK,dice,<invalid>,569
4622ca7e178487,46,4,sounds/type_60,568,5,OK,type,<invalid>,1064
4622ca77d3bb11,25,4,sounds/dice_60,630,5,OK,tice,<invalid>,615
4622ca7584dfc6,43,4,sounds/dice_20,630,0,OK,tice,<invalid>,916
4622ca7e178487,47,4,sounds/type_0,569,10,incorrect_response,type,<invalid>,932
4622ca77d3bb11,26,4,sounds/dice_40,630,0,OK,tice,<invalid>,546
4622ca7584dfc6,44,4,sounds/dice_60,630,0,OK,tice,<invalid>,610
4622ca7e178487,48,4,sounds/type_40,570,10,OK,type,<invalid>,808
4622ca77d3bb11,27,4,sounds/dice_20,630,0,OK,dice,<invalid>,471
4622ca7584dfc6,45,4,sounds/dice_60,630,0,OK,tice,<invalid>,695
4622ca7e178487,49,4,sounds/type_80,569,15,OK,type,<invalid>,780
4622ca77d3bb11,28,4,sounds/dice_20,630,0,OK,dice,<invalid>,494
4622ca7584dfc6,46,4,sounds/dice_40,630,0,OK,tice,<invalid>,487
4622ca77d3bb11,29,4,sounds/dice_20,630,0,OK,dice,<invalid>,504
4622ca7584dfc6,47,4,sounds/dice_80,630,0,OK,tice,<invalid>,512
4622ca77d3bb11,30,4,sounds/dice_60,630,0,OK,tice,<invalid>,649
4622ca7584dfc6,48,4,sounds/dice_0,630,0,OK,dice,<invalid>,502
4622ca77d3bb11,31,4,sounds/dice_0,630,0,OK,dice,<invalid>,704
4622ca7584dfc6,49,4,sounds/dice_40,630,0,OK,tice,<invalid>,721
4622ca77d3bb11,32,4,sounds/dice_0,630,0,OK,dice,<invalid>,562
4622ca77d3bb11,33,4,sounds/dice_0,630,0,OK,dice,<invalid>,622
4622ca77d3bb11,34,4,sounds/dice_40,630,0,OK,tice,<invalid>,651
4622ca77d3bb11,35,4,sounds/dice_80,630,0,OK,tice,<invalid>,610
4622ca77d3bb11,36,4,sounds/dice_0,630,0,OK,dice,<invalid>,545
4622ca77d3bb11,37,4,sounds/dice_80,630,0,OK,tice,<invalid>,602
4622ca77d3bb11,38,4,sounds/dice_60,630,0,OK,tice,<invalid>,582
4622ca77d3bb11,39,4,sounds/dice_40,630,0,OK,tice,<invalid>,551
4622ca77d3bb11,40,4,sounds/dice_60,630,0,OK,tice,<invalid>,535
4622ca77d3bb11,41,4,sounds/dice_40,630,0,OK,tice,<invalid>,496
4622ca77d3bb11,42,4,sounds/dice_0,630,0,OK,dice,<invalid>,601
4622ca77d3bb11,43,4,sounds/dice_80,630,0,OK,tice,<invalid>,527
4622ca77d3bb11,44,4,sounds/dice_80,630,0,OK,tice,<invalid>,616
4622ca7e178487,0,4,sounds/dice_20,630,695,OK,tice,<invalid>,955
4622ca77d3bb11,45,4,sounds/dice_20,630,0,OK,dice,<invalid>,613
4622ca7e178487,1,4,sounds/dice_20,630,5,OK,tice,<invalid>,628
4622ca77d3bb11,46,4,sounds/dice_20,630,0,OK,dice,<invalid>,559
4622ca7e178487,2,4,sounds/dice_80,630,640,OK,tice,<invalid>,456
4622ca77d3bb11,47,4,sounds/dice_0,630,0,OK,dice,<invalid>,576
4622ca77d3bb11,48,4,sounds/dice_60,630,0,OK,tice,<invalid>,828
4622ca7e178487,3,4,sounds/dice_0,630,660,incorrect_response,tice,<invalid>,543
4622ca7e178487,4,4,sounds/dice_80,630,5,incorrect_response,dice,<invalid>,477
4622ca77d3bb11,49,4,sounds/dice_0,630,0,OK,dice,<invalid>,544
4622ca7e178487,5,4,sounds/dice_60,630,915,OK,tice,<invalid>,524
4622ca7e178487,6,4,sounds/dice_60,630,10,OK,tice,<invalid>,695
4622ca7e178487,7,4,sounds/dice_80,630,10,OK,tice,<invalid>,578
4622ca7e178487,8,4,sounds/dice_80,630,5,incorrect_response,dice,<invalid>,558
4622ca7e178487,9,4,sounds/dice_60,630,10,OK,tice,<invalid>,420
4622ca7e178487,10,4,sounds/dice_40,630,670,OK,tice,<invalid>,525
4622ca7e178487,11,4,sounds/dice_40,630,5,OK,tice,<invalid>,810
4622ca7e178487,12,4,sounds/dice_40,630,5,OK,tice,<invalid>,476
4622ca7e178487,13,4,sounds/dice_60,630,15,OK,tice,<invalid>,490
4622ca7e178487,14,4,sounds/dice_0,630,10,incorrect_response,tice,<invalid>,483
4622ca7e178487,15,4,sounds/dice_0,630,5,incorrect_response,tice,<invalid>,600
4622ca7e178487,16,4,sounds/dice_40,630,5,OK,tice,<invalid>,459
4622ca7e178487,17,4,sounds/dice_0,630,15,OK,dice,<invalid>,377
4622ca7e178487,18,4,sounds/dice_80,630,15,incorrect_response,dice,<invalid>,626
4622ca7e178487,19,4,sounds/dice_20,630,10,OK,tice,<invalid>,466
4622ca7e178487,20,4,sounds/dice_0,630,10,OK,dice,<invalid>,568
4622ca7e178487,21,4,sounds/dice_20,630,5,OK,tice,<invalid>,602
4622ca7e178487,22,4,sounds/dice_0,630,5,OK,dice,<invalid>,578
4622ca7e178487,23,4,sounds/dice_80,630,5,OK,tice,<invalid>,1001
4622ca7e178487,24,4,sounds/dice_20,630,10,OK,dice,<invalid>,462
4622ca7e178487,25,4,sounds/dice_40,630,5,OK,tice,<invalid>,765
4622ca7e178487,26,4,sounds/dice_40,630,10,OK,dice,<invalid>,437
4622ca7e178487,27,4,sounds/dice_60,630,25,OK,tice,<invalid>,387
4622ca7e178487,28,4,sounds/dice_20,630,5,OK,tice,<invalid>,358
4622ca7e178487,29,4,sounds/dice_0,630,10,OK,dice,<invalid>,400
4622ca7e178487,30,4,sounds/dice_40,630,5,OK,tice,<invalid>,488
4622ca7e178487,31,4,sounds/dice_80,630,25,incorrect_response,dice,<invalid>,488
4622ca7e178487,32,4,sounds/dice_60,630,5,OK,tice,<invalid>,452
4622ca7e178487,33,4,sounds/dice_40,630,10,OK,tice,<invalid>,515
4622ca7e178487,34,4,sounds/dice_60,630,5,OK,tice,<invalid>,521
4622ca7e178487,35,4,sounds/dice_80,630,10,incorrect_response,dice,<invalid>,452
4622ca7e178487,36,4,sounds/dice_80,630,5,OK,tice,<invalid>,382
4622ca7e178487,37,4,sounds/dice_20,630,10,OK,tice,<invalid>,540
4622ca7e178487,38,4,sounds/dice_60,630,5,OK,tice,<invalid>,679
4622ca7e178487,39,4,sounds/dice_20,630,10,OK,tice,<invalid>,494
4622ca7e178487,40,4,sounds/dice_20,630,5,OK,tice,<invalid>,605
4622ca7e178487,41,4,sounds/dice_40,630,15,OK,tice,<invalid>,473
4622ca7e178487,42,4,sounds/dice_0,630,10,incorrect_response,tice,<invalid>,556
4622ca7e178487,43,4,sounds/dice_20,630,10,OK,dice,<invalid>,500
4622ca7e178487,44,4,sounds/dice_60,630,5,OK,dice,<invalid>,1015
4622ca7e178487,45,4,sounds/dice_0,630,5,incorrect_response,tice,<invalid>,470
4622ca7e178487,46,4,sounds/dice_40,630,15,OK,dice,<invalid>,388
4622ca7e178487,47,4,sounds/dice_60,630,5,fast_response,tice,<invalid>,176
4622ca7e178487,48,4,sounds/dice_80,630,10,incorrect_response,dice,<invalid>,358
4622ca7e178487,49,4,sounds/dice_0,630,10,incorrect_response,tice,<invalid>,431
3622caa97dab70,0,3,sounds/type_20,569,145,slow_response,dype,<invalid>,5463
3622caa97dab70,1,3,sounds/type_0,569,135,incorrect_response,type,<invalid>,1976
3622caa97dab70,2,3,sounds/type_0,569,0,incorrect_response,type,<invalid>,2321
3622caa97dab70,3,3,sounds/type_60,568,135,OK,dype,<invalid>,1911
3622caa97dab70,4,3,sounds/type_80,569,135,incorrect_response,dype,<invalid>,2022
3622caa97dab70,5,3,sounds/type_40,570,135,OK,type,<invalid>,1891
3622caa97dab70,6,3,sounds/type_20,569,0,OK,dype,<invalid>,1900
3622caa97dab70,7,3,sounds/type_80,569,0,OK,type,<invalid>,1842
3622caa97dab70,8,3,sounds/type_0,569,0,OK,dype,<invalid>,1768
3622caa97dab70,9,3,sounds/type_80,569,0,OK,type,<invalid>,1688
3622caa97dab70,10,3,sounds/type_60,568,0,OK,dype,<invalid>,1550
3622caa97dab70,11,3,sounds/type_20,569,5,OK,type,<invalid>,1492
3622caa97dab70,12,3,sounds/type_0,569,0,OK,dype,<invalid>,1563
3622caa97dab70,13,3,sounds/type_20,569,0,OK,type,<invalid>,1486
3622caa97dab70,14,3,sounds/type_60,568,0,OK,dype,<invalid>,1570
3622caa97dab70,15,3,sounds/type_40,570,5,OK,type,<invalid>,1549
3622caa97dab70,16,3,sounds/type_80,569,0,incorrect_response,dype,<invalid>,1494
3622caa97dab70,17,3,sounds/type_20,569,0,OK,type,<invalid>,2047
3622caa97dab70,18,3,sounds/type_20,569,0,OK,type,<invalid>,1766
3622caa97dab70,19,3,sounds/type_60,568,0,OK,type,<invalid>,1756
3622caa97dab70,20,3,sounds/type_0,569,0,OK,dype,<invalid>,1673
3622caa97dab70,21,3,sounds/type_80,569,0,OK,type,<invalid>,1651
3622caa97dab70,22,3,sounds/type_20,569,0,OK,type,<invalid>,1892
3622caa97dab70,23,3,sounds/type_40,570,5,OK,type,<invalid>,1650
3622caa97dab70,24,3,sounds/type_80,569,0,OK,type,<invalid>,1633
3622caa97dab70,25,3,sounds/type_0,569,0,OK,dype,<invalid>,1910
3622caa97dab70,26,3,sounds/type_40,570,0,OK,type,<invalid>,1628
3622caa97dab70,27,3,sounds/type_20,569,0,OK,type,<invalid>,1545
3622caa97dab70,28,3,sounds/type_80,569,0,incorrect_response,dype,<invalid>,1600
3622caa97dab70,29,3,sounds/type_40,570,0,OK,type,<invalid>,1871
3622caa97dab70,30,3,sounds/type_40,570,0,OK,type,<invalid>,1728
3622caa97dab70,31,3,sounds/type_60,568,0,OK,type,<invalid>,1625
3622caa97dab70,32,3,sounds/type_20,569,0,OK,type,<invalid>,1568
3622caa97dab70,33,3,sounds/type_40,570,0,OK,type,<invalid>,1571
3622caa97dab70,34,3,sounds/type_80,569,0,OK,type,<invalid>,1575
3622caa97dab70,35,3,sounds/type_60,568,0,OK,type,<invalid>,1598
3622caa97dab70,36,3,sounds/type_80,569,0,OK,type,<invalid>,1596
3622caa97dab70,37,3,sounds/type_0,569,5,incorrect_response,type,<invalid>,1696
3622caa97dab70,38,3,sounds/type_0,569,0,OK,dype,<invalid>,1600
3622caa97dab70,39,3,sounds/type_80,569,0,OK,type,<invalid>,1638
3622caa97dab70,40,3,sounds/type_60,568,0,OK,type,<invalid>,1703
3622caa97dab70,41,3,sounds/type_60,568,0,OK,type,<invalid>,1572
3622caa97dab70,42,3,sounds/type_60,568,0,OK,type,<invalid>,1552
3622caa97dab70,43,3,sounds/type_40,570,0,OK,type,<invalid>,1616
3622caa97dab70,44,3,sounds/type_40,570,0,OK,type,<invalid>,1746
3622caa97dab70,45,3,sounds/type_0,569,5,incorrect_response,type,<invalid>,1528
3622caa97dab70,46,3,sounds/type_0,569,0,OK,dype,<invalid>,1648
3622caa97dab70,47,3,sounds/type_20,569,0,OK,type,<invalid>,1518
3622caa97dab70,48,3,sounds/type_60,568,0,OK,type,<invalid>,1535
3622caa97dab70,49,3,sounds/type_40,570,0,OK,dype,<invalid>,1534
3622cab55dbace,0,3,sounds/type_60,568,105,slow_response,type,<invalid>,4668
3622cab55dbace,1,3,sounds/type_20,569,105,OK,type,<invalid>,1383
3622cab55dbace,2,3,sounds/type_60,568,5,OK,type,<invalid>,1104
3622cab55dbace,3,3,sounds/type_0,569,115,OK,dype,<invalid>,823
3622cab55dbace,4,3,sounds/type_40,570,125,OK,type,<invalid>,823
3622cab55dbace,5,3,sounds/type_20,569,5,OK,dype,<invalid>,924
3622cab55dbace,6,3,sounds/type_40,570,5,OK,type,<invalid>,724
3622cab55dbace,7,3,sounds/type_80,569,125,OK,type,<invalid>,817
3622cab55dbace,8,3,sounds/type_20,569,5,OK,dype,<invalid>,925
3622cab55dbace,9,3,sounds/type_80,569,5,OK,type,<invalid>,675
3622cab55dbace,10,3,sounds/type_0,569,0,OK,dype,<invalid>,659
3622cab55dbace,11,3,sounds/type_80,569,5,OK,type,<invalid>,682
3622cab55dbace,12,3,sounds/type_60,568,5,OK,type,<invalid>,917
3622cab55dbace,13,3,sounds/type_20,569,5,OK,dype,<invalid>,541
3622cab55dbace,14,3,sounds/type_40,570,5,OK,type,<invalid>,544
3622cab55dbace,15,3,sounds/type_40,570,5,OK,type,<invalid>,647
3622cab55dbace,16,3,sounds/type_60,568,5,OK,type,<invalid>,662
3622cab55dbace,17,3,sounds/type_20,569,0,OK,dype,<invalid>,546
3622cab55dbace,18,3,sounds/type_0,569,0,OK,dype,<invalid>,652
3622cab55dbace,19,3,sounds/type_0,569,5,OK,dype,<invalid>,631
3622cab55dbace,20,3,sounds/type_40,570,0,OK,type,<invalid>,571
3622cab55dbace,21,3,sounds/type_0,569,0,OK,dype,<invalid>,615
3622cab55dbace,22,3,sounds/type_0,569,0,OK,dype,<invalid>,583
3622cab55dbace,23,3,sounds/type_80,569,10,OK,type,<invalid>,689
3622cab55dbace,24,3,sounds/type_60,568,0,OK,type,<invalid>,743
3622cab55dbace,25,3,sounds/type_60,568,0,OK,type,<invalid>,610
3622cab55dbace,26,3,sounds/type_40,570,0,OK,type,<invalid>,629
3622cab55dbace,27,3,sounds/type_80,569,0,OK,type,<invalid>,714
3622cab55dbace,28,3,sounds/type_0,569,0,OK,dype,<invalid>,642
3622cab55dbace,29,3,sounds/type_0,569,0,OK,dype,<invalid>,675
3622caa97dab70,0,3,sounds/dice_40,630,140,OK,dice,<invalid>,2185
3622cab55dbace,30,3,sounds/type_80,569,0,OK,type,<invalid>,681
3622caa97dab70,1,3,sounds/dice_20,630,140,OK,tice,<invalid>,1275
3622cab55dbace,31,3,sounds/type_20,569,0,OK,type,<invalid>,742
3622cab55dbace,32,3,sounds/type_20,569,0,OK,type,<invalid>,614
3622caa97dab70,2,3,sounds/dice_80,630,135,OK,tice,<invalid>,1310
3622cab55dbace,33,3,sounds/type_40,570,0,OK,type,<invalid>,761
3622caa97dab70,3,3,sounds/dice_20,630,0,OK,tice,<invalid>,1272
3622caba79f77e,0,3,sounds/type_40,570,140,slow_response,type,<invalid>,9375
3622cab55dbace,34,3,sounds/type_20,569,0,OK,type,<invalid>,919
3622caa97dab70,4,3,sounds/dice_40,630,0,OK,tice,<invalid>,1347
3622cab55dbace,35,3,sounds/type_80,569,0,OK,type,<invalid>,743
3622caba79f77e,1,3,sounds/type_60,568,130,OK,type,<invalid>,2192
3622caa97dab70,5,3,sounds/dice_20,630,0,OK,dice,<invalid>,1463
3622cab55dbace,36,3,sounds/type_60,568,5,OK,type,<invalid>,751
3622caba79f77e,2,3,sounds/type_20,569,395,OK,dype,<invalid>,1506
3622caa97dab70,6,3,sounds/dice_0,630,170,incorrect_response,tice,<invalid>,1198
3622cab55dbace,37,3,sounds/type_80,569,0,OK,type,<invalid>,701
3622caba79f77e,3,3,sounds/type_40,570,0,OK,type,<invalid>,1305
3622cab55dbace,38,3,sounds/type_60,568,0,OK,type,<invalid>,728
3622caa97dab70,7,3,sounds/dice_80,630,0,OK,tice,<invalid>,1800
3622caba79f77e,4,3,sounds/type_80,569,115,incorrect_response,dype,<invalid>,1401
3622cab55dbace,39,3,sounds/type_40,570,0,OK,type,<invalid>,899
3622caa97dab70,8,3,sounds/dice_40,630,0,OK,tice,<invalid>,1328
3622cab55dbace,40,3,sounds/type_60,568,0,OK,type,<invalid>,805
3622caba79f77e,5,3,sounds/type_0,569,120,OK,dype,<invalid>,1188
3622caa97dab70,9,3,sounds/dice_80,630,0,OK,tice,<invalid>,1427
3622cab55dbace,41,3,sounds/type_0,569,0,OK,dype,<invalid>,845
3622caba79f77e,6,3,sounds/type_0,569,0,OK,dype,<invalid>,1006
3622caa97dab70,10,3,sounds/dice_40,630,0,OK,tice,<invalid>,1261
3622cab55dbace,42,3,sounds/type_60,568,0,OK,type,<invalid>,677
3622caba79f77e,7,3,sounds/type_20,569,10,OK,type,<invalid>,839
3622cab55dbace,43,3,sounds/type_20,569,0,OK,type,<invalid>,695
3622caa97dab70,11,3,sounds/dice_0,630,0,OK,dice,<invalid>,1253
3622caba79f77e,8,3,sounds/type_60,568,0,OK,type,<invalid>,745
3622cab55dbace,44,3,sounds/type_80,569,0,OK,type,<invalid>,711
3622caba79f77e,9,3,sounds/type_0,569,0,OK,dype,<invalid>,669
3622caa97dab70,12,3,sounds/dice_0,630,0,OK,dice,<invalid>,1415
3622cab55dbace,45,3,sounds/type_40,570,0,OK,type,<invalid>,684
3622caba79f77e,10,3,sounds/type_0,569,5,OK,dype,<invalid>,834
3622caa97dab70,13,3,sounds/dice_80,630,0,OK,tice,<invalid>,1261
3622cab55dbace,46,3,sounds/type_40,570,0,OK,type,<invalid>,732
3622caba79f77e,11,3,sounds/type_20,569,5,OK,type,<invalid>,789
3622caa97dab70,14,3,sounds/dice_40,630,0,OK,tice,<invalid>,1346
3622cab55dbace,47,3,sounds/type_20,569,0,OK,dype,<invalid>,824
3622caba79f77e,12,3,sounds/type_0,569,5,OK,dype,<invalid>,763
3622caa97dab70,15,3,sounds/dice_60,630,135,OK,tice,<invalid>,1249
3622cab55dbace,48,3,sounds/type_80,569,0,OK,type,<invalid>,686
3622caba79f77e,13,3,sounds/type_0,569,0,OK,dype,<invalid>,748
3622cab55dbace,49,3,sounds/type_0,569,0,OK,dype,<invalid>,808
3622caa97dab70,16,3,sounds/dice_60,630,0,OK,tice,<invalid>,1204
3622caba79f77e,14,3,sounds/type_20,569,5,OK,type,<invalid>,950
3622caa97dab70,17,3,sounds/dice_60,630,0,OK,tice,<invalid>,1165
3622caba79f77e,15,3,sounds/type_40,570,45,OK,type,<invalid>,782
3622caba79f77e,16,3,sounds/type_60,568,0,OK,type,<invalid>,814
3622caa97dab70,18,3,sounds/dice_60,630,0,OK,tice,<invalid>,1233
